,Timestamp,,TimeUS,I,GyrX,GyrY,GyrZ,AccX,AccY,AccZ,EG,EA,T,GH,AH,GHz,AHz
1872,55:20.6,IMU,44805404,0,0.000625094,0.000635031,0.000657777,-0.001333293,-0.001545984,-9.817468,0,0,27.6644,1,1,1000,1000
1873,55:20.6,IMU,44805404,1,0.000466721,0.000470573,0.000624961,-0.001478926,-0.00072453,-9.816201,0,0,27.66434,1,1,760,800
1969,55:20.6,IMU,44845388,0,0.000604721,0.000612637,0.000632309,-0.000109841,-0.000743433,-9.815765,0,0,27.66671,1,1,1000,1000
1970,55:20.6,IMU,44845388,1,0.000682181,0.000490917,0.000725707,-0.000666448,-0.000533193,-9.816121,0,0,27.66665,1,1,760,800
2021,55:20.7,IMU,44885372,0,0.000675931,0.000591888,0.000713256,-0.000952018,-0.000918481,-9.81632,0,0,27.66902,1,1,1000,1000
2022,55:20.7,IMU,44885372,1,0.000721303,0.000544602,0.000626998,-0.002298919,-0.000655593,-9.819014,0,0,27.66896,1,1,760,800
2074,55:20.7,IMU,44925356,0,0.000631607,0.0005657,0.00060859,-0.000658516,-0.00092735,-9.81753,0,0,27.67133,1,1,1000,1000
2075,55:20.7,IMU,44925356,1,0.00081145,0.000500355,0.000940085,0.001454891,-0.001534562,-9.820333,0,0,27.67127,1,1,760,800
2168,55:20.8,IMU,44965340,0,0.00060167,0.000660412,0.000613454,-0.000911965,-0.00097915,-9.818225,0,0,27.67364,1,1,1000,1000
2169,55:20.8,IMU,44965340,1,0.000745521,0.000639631,0.000644501,-0.001379297,-0.000515489,-9.816464,0,0,27.67358,1,1,760,800
2223,55:20.8,IMU,45005324,0,0.00062117,0.000613501,0.000723728,-0.001569872,-0.001615891,-9.81701,0,0,27.67595,1,1,1000,1000
2224,55:20.8,IMU,45005324,1,0.000656167,0.000527684,0.000762891,-0.003725507,-0.000271754,-9.819147,0,0,27.67589,1,1,760,800
2320,55:20.8,IMU,45045308,0,0.000543415,0.00068731,0.000608776,-0.000621478,-2.96E-05,-9.817985,0,0,27.67826,1,1,1000,1000
2321,55:20.8,IMU,45045308,1,0.000678715,0.000861076,0.000846398,-0.003149849,-0.001242577,-9.81685,0,0,27.6782,1,1,760,800
2370,55:20.9,IMU,45085292,0,0.000637391,0.000602019,0.000625779,-0.000110578,-0.000430424,-9.817263,0,0,27.68057,1,1,1000,1000
2371,55:20.9,IMU,45085292,1,0.000649796,0.000374658,0.000646184,0.00014402,-0.00360272,-9.818491,0,0,27.68051,1,1,760,800
2423,55:20.9,IMU,45125276,0,0.000650672,0.000571466,0.000575277,-0.000851293,-0.001188986,-9.817429,0,0,27.68288,1,1,1000,1000
2424,55:20.9,IMU,45125276,1,0.000620989,0.000447168,0.000807162,-0.000672005,0.000837199,-9.816628,0,0,27.68282,1,1,760,800
2518,55:21.0,IMU,45165260,0,0.00069815,0.000575685,0.00057493,-0.000217515,-0.001501223,-9.818148,0,0,27.68519,1,1,1000,1000
2519,55:21.0,IMU,45165260,1,0.000546455,0.000610069,0.000654879,-1.82E-05,-0.001604393,-9.819193,0,0,27.68513,1,1,760,800
2572,55:21.0,IMU,45205244,0,0.000645257,0.000608679,0.000679177,-0.001616123,-0.001473771,-9.817567,0,0,27.6875,1,1,1000,1000
2573,55:21.0,IMU,45205244,1,0.000899064,0.000760397,0.00037537,-0.002998069,-0.000849999,-9.816784,0,0,27.68744,1,1,760,800
2667,55:21.0,IMU,45245228,0,0.000672219,0.000644884,0.000568324,-0.001955177,-0.000624006,-9.816854,0,0,27.68975,1,1,1000,1000
2668,55:21.0,IMU,45245228,1,0.000672937,0.000680595,0.00055788,-0.003047081,-0.00048195,-9.816862,0,0,27.68975,1,1,760,800
2718,55:21.1,IMU,45285212,0,0.000602091,0.000635594,0.000631215,-0.00103677,-0.001854443,-9.818073,0,0,27.69205,1,1,1000,1000
2719,55:21.1,IMU,45285212,1,0.000703243,0.000455483,0.000523427,-0.001209255,-0.001157121,-9.816387,0,0,27.69205,1,1,760,800
2770,55:21.1,IMU,45325196,0,0.000554617,0.000612314,0.000678734,-0.001572998,-0.001067738,-9.817563,0,0,27.69436,1,1,1000,1000
2771,55:21.1,IMU,45325196,1,0.000724534,0.000605574,0.001105982,-0.001035168,-0.001075726,-9.817506,0,0,27.69436,1,1,760,800
2868,55:21.2,IMU,45365180,0,0.000605913,0.000600164,0.000650047,-0.000661223,-0.000121232,-9.817028,0,0,27.69667,1,1,1000,1000
2869,55:21.2,IMU,45365180,1,0.000763695,0.000817386,0.000637245,-0.000138956,-0.001363185,-9.817936,0,0,27.69667,1,1,760,800
2923,55:21.2,IMU,45405164,0,0.000594886,0.000667762,0.000590857,-0.000146568,-0.000808017,-9.816818,0,0,27.69898,1,1,1000,1000
2924,55:21.2,IMU,45405164,1,0.000607105,0.000460194,0.00063055,-1.00E-04,-0.002345955,-9.818119,0,0,27.69898,1,1,760,800
3020,55:21.2,IMU,45445148,0,0.000613877,0.000636226,0.00063167,-0.001960866,-0.000194417,-9.817755,0,0,27.70128,1,1,1000,1000
3021,55:21.2,IMU,45445148,1,0.00068894,0.000624398,0.000507211,0.002507593,-0.001857408,-9.818575,0,0,27.70128,1,1,760,800
3072,55:21.3,IMU,45485132,0,0.000583245,0.000604223,0.000589897,-0.00044945,-0.000372473,-9.81773,0,0,27.70359,1,1,1000,1000
3073,55:21.3,IMU,45485132,1,0.000441608,0.000796868,0.000612313,-0.001569931,-0.001976742,-9.818598,0,0,27.70359,1,1,760,800
3125,55:21.3,IMU,45525116,0,0.00063795,0.000647233,0.000662048,-0.000799304,-0.001039435,-9.817279,0,0,27.7059,1,1,1000,1000
3126,55:21.3,IMU,45525116,1,0.000466066,0.000673636,0.000553681,-0.001663438,-0.001323593,-9.818164,0,0,27.7059,1,1,760,800
3222,55:21.4,IMU,45565100,0,0.000625672,0.000658213,0.000596862,-0.001461436,-0.001341523,-9.817475,0,0,27.7082,1,1,1000,1000
3223,55:21.4,IMU,45565100,1,0.000694361,0.000638822,0.000614904,-0.001727787,-0.001536134,-9.820704,0,0,27.7082,1,1,760,800
3276,55:21.4,IMU,45605084,0,0.000616589,0.000676871,0.000666705,-0.001474438,-0.001405652,-9.816075,0,0,27.71051,1,1,1000,1000
3277,55:21.4,IMU,45605084,1,0.000596914,0.000821237,0.000508274,-0.002072694,0.00198359,-9.816116,0,0,27.71051,1,1,760,800
3370,55:21.4,IMU,45645068,0,0.000624128,0.000650982,0.000678353,-0.00145929,-0.000156484,-9.81745,0,0,27.71281,1,1,1000,1000
3371,55:21.4,IMU,45645068,1,0.000511624,0.000615423,0.000629485,-0.000878634,-0.004803187,-9.820326,0,0,27.71281,1,1,760,800
3420,55:21.5,IMU,45685052,0,0.000659177,0.000607687,0.000630069,-0.000418988,9.609425E-05,-9.81638,0,0,27.71518,1,1,1000,1000
3421,55:21.5,IMU,45685052,1,0.000449525,0.000507885,0.000827009,-0.003097324,0.001333833,-9.816557,0,0,27.71518,1,1,760,800
3472,55:21.5,IMU,45725036,0,0.000541603,0.000654241,0.000637341,-0.001004492,-0.001675082,-9.817556,0,0,27.71748,1,1,1000,1000
3473,55:21.5,IMU,45725036,1,0.000555836,0.000581259,0.000733109,-0.001400103,-0.000592335,-9.816826,0,0,27.71748,1,1,760,800
3568,55:21.6,IMU,45765020,0,0.00057856,0.000602398,0.000645098,-0.001254445,-0.000411155,-9.816963,0,0,27.71978,1,1,1000,1000
3569,55:21.6,IMU,45765020,1,0.000831371,0.000699966,0.000628671,-0.001658045,-0.002019339,-9.816482,0,0,27.71978,1,1,760,800
3622,55:21.6,IMU,45805004,0,0.000636634,0.000648498,0.000627958,-0.000806989,-0.000656522,-9.818295,0,0,27.72209,1,1,1000,1000
3623,55:21.6,IMU,45805004,1,0.000636504,0.000606264,0.000611823,-0.001455208,-0.00110837,-9.818068,0,0,27.72209,1,1,760,800
3715,55:21.6,IMU,45844988,0,0.000648548,0.000565253,0.000661145,-0.00164601,-0.001225666,-9.816921,0,0,27.72433,1,1,1000,1000
3716,55:21.6,IMU,45844988,1,0.000768549,0.000672531,0.000702552,0.00020998,0.00026177,-9.81651,0,0,27.72433,1,1,760,800
3769,55:21.7,IMU,45884972,0,0.000666497,0.000633898,0.000639023,-0.000656435,-0.000696485,-9.81822,0,0,27.72664,1,1,1000,1000
3770,55:21.7,IMU,45884972,1,0.000571869,0.000680427,0.000687867,-0.000332756,-0.00116281,-9.817533,0,0,27.72664,1,1,760,800
3821,55:21.7,IMU,45924956,0,0.000680481,0.000604492,0.00062224,-0.000415547,-0.00093626,-9.816507,0,0,27.72894,1,1,1000,1000
3822,55:21.7,IMU,45924956,1,0.000653837,0.000652798,0.000790302,-0.003605457,-0.000671173,-9.818419,0,0,27.72894,1,1,760,800
3916,55:21.8,IMU,45964940,0,0.00066159,0.000644162,0.000614788,0.000682716,-0.001902733,-9.817341,0,0,27.73124,1,1,1000,1000
3917,55:21.8,IMU,45964940,1,0.000663598,0.000601334,0.00059014,-0.001035659,-0.003704084,-9.816683,0,0,27.73124,1,1,760,800
3971,55:21.8,IMU,46004924,0,0.000600622,0.000598741,0.000570031,-0.002197597,-0.000418786,-9.817375,0,0,27.73355,1,1,1000,1000
3972,55:21.8,IMU,46004924,1,0.000663784,0.000744087,0.000908026,-0.000839158,0.000234698,-9.815588,0,0,27.73355,1,1,760,800
4067,55:21.8,IMU,46044908,0,0.000687524,0.000714314,0.000637927,-0.000974605,-0.001785211,-9.817762,0,0,27.73585,1,1,1000,1000
4068,55:21.8,IMU,46044908,1,0.000491792,0.000481282,0.000511824,1.970137E-05,-0.001408038,-9.817148,0,0,27.73585,1,1,760,800
4118,55:21.9,IMU,46084892,0,0.000656668,0.000647354,0.00061113,-0.000354266,-0.000830917,-9.816699,0,0,27.73815,1,1,1000,1000
4119,55:21.9,IMU,46084892,1,0.000634048,0.000275886,0.000546827,-0.000279499,-0.001382755,-9.813179,0,0,27.73815,1,1,760,800
4171,55:21.9,IMU,46124876,0,0.000644092,0.000705364,0.000682061,8.883978E-05,-0.000501921,-9.818022,0,0,27.74045,1,1,1000,1000
4172,55:21.9,IMU,46124876,1,0.000876321,0.000465939,0.000575028,-0.000242095,9.063586E-05,-9.818562,0,0,27.74045,1,1,760,800
4266,55:22.0,IMU,46164860,0,0.000666957,0.000679256,0.000660915,-0.001890423,-0.001333376,-9.816478,0,0,27.74275,1,1,1000,1000
4267,55:22.0,IMU,46164860,1,0.000837234,0.000657852,0.000703112,-0.00185953,-0.001718392,-9.817143,0,0,27.74275,1,1,760,800
4320,55:22.0,IMU,46204844,0,0.000683348,0.000691545,0.000625897,-0.002230802,-0.001213267,-9.818121,0,0,27.74505,1,1,1000,1000
4321,55:22.0,IMU,46204844,1,0.000636645,0.000533555,0.00062851,-0.000805202,-0.001752287,-9.819959,0,0,27.74505,1,1,760,800
4414,55:22.0,IMU,46244828,0,0.000614896,0.000633064,0.000578491,-0.000882989,-0.001609191,-9.817179,0,0,27.74735,1,1,1000,1000
4415,55:22.0,IMU,46244828,1,0.000511101,0.000697803,0.000711824,-0.000405017,0.000624353,-9.818973,0,0,27.74735,1,1,760,800
4466,55:22.1,IMU,46284812,0,0.000593152,0.000692419,0.000530763,-0.000883212,-0.000364982,-9.817086,0,0,27.74965,1,1,1000,1000
4467,55:22.1,IMU,46284812,1,0.00057731,0.000438198,0.000711908,-0.000696888,-0.000411361,-9.816799,0,0,27.74965,1,1,760,800
4519,55:22.1,IMU,46324796,0,0.00058026,0.000573415,0.000607602,-0.001344232,7.185257E-05,-9.817587,0,0,27.75195,1,1,1000,1000
4520,55:22.1,IMU,46324796,1,0.0004376,0.00050728,0.000607985,0.000485416,-0.001291289,-9.818367,0,0,27.75195,1,1,760,800
4614,55:22.2,IMU,46364780,0,0.000578037,0.000645206,0.000675122,-0.00107082,-0.000812135,-9.817329,0,0,27.75425,1,1,1000,1000
4615,55:22.2,IMU,46364780,1,0.000534983,0.000521313,0.000717496,4.675498E-05,0.0003075,-9.81655,0,0,27.75425,1,1,760,800
4671,55:22.2,IMU,46404764,0,0.000572478,0.00067263,0.000593283,-0.000799453,-0.001126733,-9.818096,0,0,27.75655,1,1,1000,1000
4672,55:22.2,IMU,46404764,1,0.000336382,0.00064867,0.000315813,0.000305912,-0.000627742,-9.816916,0,0,27.75655,1,1,760,800
4767,55:22.2,IMU,46444748,0,0.000666589,0.000584449,0.000644212,-0.001809633,-0.001728104,-9.817657,0,0,27.75885,1,1,1000,1000
4768,55:22.2,IMU,46444748,1,0.000340101,0.000676137,0.000865103,-0.002490551,-0.001384697,-9.817794,0,0,27.75885,1,1,760,800
4820,55:22.3,IMU,46484732,0,0.000597229,0.000770974,0.000584019,-0.001456725,-0.001189961,-9.817753,0,0,27.76115,1,1,1000,1000
4821,55:22.3,IMU,46484732,1,0.000673557,0.000702423,0.000600709,-3.96E-05,0.00076041,-9.818662,0,0,27.76115,1,1,760,800
4873,55:22.3,IMU,46524716,0,0.000586602,0.000642197,0.000649452,-0.000713138,-0.001487057,-9.817367,0,0,27.76345,1,1,1000,1000
4874,55:22.3,IMU,46524716,1,0.000637952,0.000475415,0.000512573,-0.001342945,-0.001722642,-9.81801,0,0,27.76345,1,1,760,800
4971,55:22.4,IMU,46564700,0,0.000641723,0.000635765,0.000712639,-0.001107594,-0.000976009,-9.817788,0,0,27.76575,1,1,1000,1000
4972,55:22.4,IMU,46564700,1,0.00055364,0.001022995,0.000727878,-0.00210308,-0.001821485,-9.815056,0,0,27.76575,1,1,760,800
5025,55:22.4,IMU,46604684,0,0.000638881,0.000620016,0.000684387,-0.001484139,-0.001337311,-9.815849,0,0,27.76804,1,1,1000,1000
5026,55:22.4,IMU,46604684,1,0.000619655,0.000513026,0.000577446,0.000675804,-4.25E-05,-9.815995,0,0,27.76804,1,1,760,800
5119,55:22.4,IMU,46644668,0,0.000636629,0.000640655,0.000629024,-0.001290254,-0.001290274,-9.817911,0,0,27.77034,1,1,1000,1000
5120,55:22.4,IMU,46644668,1,0.000722083,0.000630649,0.000633496,-0.000703002,-0.002339723,-9.81896,0,0,27.77034,1,1,760,800
5173,55:22.5,IMU,46684652,0,0.000586465,0.000650046,0.000684382,-0.00068602,-0.001405913,-9.817844,0,0,27.77264,1,1,1000,1000
5174,55:22.5,IMU,46684652,1,0.000461406,0.000595647,0.000790755,0.000364612,-0.002059584,-9.816741,0,0,27.77264,1,1,760,800
5225,55:22.5,IMU,46724636,0,0.00068855,0.000631212,0.000621203,-0.0002953,-0.000584306,-9.817656,0,0,27.77493,1,1,1000,1000
5226,55:22.5,IMU,46724636,1,0.000578291,0.000924421,0.000524013,-0.00109193,-0.001769038,-9.816337,0,0,27.77493,1,1,760,800
5320,55:22.6,IMU,46764620,0,0.00058983,0.000714681,0.000689595,0.000313908,-0.000190249,-9.818106,0,0,27.77723,1,1,1000,1000
5321,55:22.6,IMU,46764620,1,0.000797033,0.000690501,0.000480471,0.000470439,-0.001984993,-9.815664,0,0,27.77723,1,1,760,800
5376,55:22.6,IMU,46804604,0,0.000591236,0.000669333,0.000618465,-4.01E-05,-0.001293973,-9.817011,0,0,27.77953,1,1,1000,1000
5377,55:22.6,IMU,46804604,1,0.000694856,0.000671706,0.000723143,-0.000682592,0.000481249,-9.815656,0,0,27.77953,1,1,760,800
5469,55:22.6,IMU,46844588,0,0.000599973,0.000616871,0.000665908,-0.00023101,-0.000203292,-9.817122,0,0,27.78182,1,1,1000,1000
5470,55:22.6,IMU,46844588,1,0.000555436,0.000506433,0.000453132,-0.002645249,-0.000898609,-9.814888,0,0,27.78182,1,1,760,800
5522,55:22.7,IMU,46885405,0,0.000663256,0.00065729,0.000656053,-0.000619766,-0.001548444,-9.818385,0,0,27.78418,1,1,1000,1000
5523,55:22.7,IMU,46885405,1,0.000704816,0.000689632,0.000386188,-0.001084879,-0.000858116,-9.817874,0,0,27.78412,1,1,760,800
5575,55:22.7,IMU,46925389,0,0.000688349,0.000610783,0.00061524,-0.000684201,-0.00052555,-9.817415,0,0,27.78647,1,1,1000,1000
5576,55:22.7,IMU,46925389,1,0.000690502,0.000875255,0.000602681,-0.002638829,-0.000968338,-9.816052,0,0,27.78642,1,1,760,800
5670,55:22.8,IMU,46965373,0,0.000569873,0.000700298,0.000644013,-0.000481705,-0.001268511,-9.816938,0,0,27.78877,1,1,1000,1000
5671,55:22.8,IMU,46965373,1,0.00045286,0.000604831,0.000589413,-0.001928775,-0.001379411,-9.815571,0,0,27.78871,1,1,760,800
5725,55:22.8,IMU,47005357,0,0.0006086,0.000606146,0.000656202,0.000266877,-0.00056216,-9.816912,0,0,27.79106,1,1,1000,1000
5726,55:22.8,IMU,47005357,1,0.000671042,0.000565775,0.000688725,-0.001642374,-0.00255568,-9.818342,0,0,27.791,1,1,760,800
5820,55:22.8,IMU,47045341,0,0.000574929,0.000670087,0.000583615,-9.59E-05,-0.001280881,-9.817795,0,0,27.79336,1,1,1000,1000
5821,55:22.8,IMU,47045341,1,0.000620278,0.000702495,0.000486702,-0.001638172,-0.001490075,-9.818308,0,0,27.7933,1,1,760,800
5872,55:22.9,IMU,47085325,0,0.000589824,0.000690793,0.000617701,-0.001711777,-0.001726344,-9.818386,0,0,27.79565,1,1,1000,1000
5873,55:22.9,IMU,47085325,1,0.000724791,0.000245405,0.000512659,4.499176E-05,0.001336104,-9.81269,0,0,27.79559,1,1,760,800
5925,55:22.9,IMU,47125309,0,0.000707566,0.000725969,0.000673436,-0.001164739,-0.001112267,-9.816978,0,0,27.79794,1,1,1000,1000
5926,55:22.9,IMU,47125309,1,0.000534246,0.000862298,0.000777629,-0.002054304,-0.000972989,-9.818963,0,0,27.79789,1,1,760,800
6019,55:23.0,IMU,47165293,0,0.000687585,0.000672462,0.000603868,-0.001598696,-0.00108459,-9.818316,0,0,27.80024,1,1,1000,1000
6020,55:23.0,IMU,47165293,1,0.000724074,0.000713727,0.000872313,-0.001193048,-0.002431042,-9.81967,0,0,27.80018,1,1,760,800
6074,55:23.0,IMU,47205277,0,0.000609001,0.000666318,0.000642452,-0.001632985,-0.00138454,-9.816453,0,0,27.80253,1,1,1000,1000
6075,55:23.0,IMU,47205277,1,0.0008302,0.000345163,0.000817786,-0.001238856,0.000142475,-9.817791,0,0,27.80247,1,1,760,800
6168,55:23.0,IMU,47245261,0,0.000646154,0.000584203,0.000677025,0.000229213,-0.001958951,-9.819097,0,0,27.80482,1,1,1000,1000
6169,55:23.0,IMU,47245261,1,0.000707759,0.000431537,0.000697638,-0.00095496,-0.001321838,-9.819464,0,0,27.80477,1,1,760,800
6219,55:23.1,IMU,47285245,0,0.000594995,0.000624714,0.000686942,-0.000789178,-0.000235739,-9.816826,0,0,27.80712,1,1,1000,1000
6220,55:23.1,IMU,47285245,1,0.000499646,0.000612018,0.000819286,0.001759434,-0.000301691,-9.815752,0,0,27.80706,1,1,760,800
6272,55:23.1,IMU,47325229,0,0.000723854,0.000664625,0.000626341,-0.001195321,0.000461289,-9.81691,0,0,27.80935,1,1,1000,1000
6273,55:23.1,IMU,47325229,1,0.000725014,0.000644452,0.000747086,-0.00226618,-0.0014394,-9.818,0,0,27.80935,1,1,760,800
6368,55:23.2,IMU,47365213,0,0.000681169,0.000649795,0.000623377,-0.001334005,-0.001829153,-9.81717,0,0,27.81164,1,1,1000,1000
6369,55:23.2,IMU,47365213,1,0.000586879,0.000639883,0.000495565,-0.00029885,1.745673E-05,-9.818067,0,0,27.81164,1,1,760,800
6424,55:23.2,IMU,47405197,0,0.000597692,0.000734859,0.000678676,-0.001197834,-0.001508788,-9.816574,0,0,27.81393,1,1,1000,1000
6425,55:23.2,IMU,47405197,1,0.000750787,0.000902812,0.000613543,-0.001731102,-0.001027287,-9.817083,0,0,27.81393,1,1,760,800
6520,55:23.2,IMU,47445181,0,0.00065046,0.000706557,0.000682693,-0.000430448,-0.00070259,-9.816519,0,0,27.81623,1,1,1000,1000
6521,55:23.2,IMU,47445181,1,0.00075771,0.000902709,0.000377491,0.000127897,-0.002806859,-9.818602,0,0,27.81623,1,1,760,800
6574,55:23.3,IMU,47485165,0,0.000678836,0.000556017,0.00072733,-0.0001522,0.000428811,-9.817734,0,0,27.81852,1,1,1000,1000
6575,55:23.3,IMU,47485165,1,0.000732531,0.000484738,0.000620811,-0.000270367,0.000382411,-9.817227,0,0,27.81852,1,1,760,800
6626,55:23.3,IMU,47525149,0,0.000623227,0.000652995,0.000727694,-0.001348937,-0.00120622,-9.816946,0,0,27.82081,1,1,1000,1000
6627,55:23.3,IMU,47525149,1,0.000800075,0.000696218,0.000387263,-0.001603154,-0.000902084,-9.819932,0,0,27.82081,1,1,760,800
6724,55:23.4,IMU,47565133,0,0.000628924,0.000664802,0.000665896,-0.000433509,-0.001997344,-9.817535,0,0,27.8231,1,1,1000,1000
6725,55:23.4,IMU,47565133,1,0.000742485,0.000687263,0.000490075,-0.001238059,-2.98E-05,-9.816564,0,0,27.8231,1,1,760,800
6779,55:23.4,IMU,47605117,0,0.000683802,0.000630168,0.000633782,-0.001009065,5.707017E-05,-9.818313,0,0,27.82539,1,1,1000,1000
6780,55:23.4,IMU,47605117,1,0.000698342,0.00064293,0.000673945,-0.000447775,-0.000574486,-9.815775,0,0,27.82539,1,1,760,800
6872,55:23.4,IMU,47645101,0,0.000652368,0.000612993,0.00074568,-0.001496461,-0.000719475,-9.817385,0,0,27.82768,1,1,1000,1000
6873,55:23.4,IMU,47645101,1,0.000561251,0.00056893,0.000725313,-0.001471506,-0.001771492,-9.81784,0,0,27.82768,1,1,760,800
6924,55:23.5,IMU,47685085,0,0.000696786,0.000636271,0.00062368,-0.000214012,-0.000328704,-9.817404,0,0,27.82997,1,1,1000,1000
6925,55:23.5,IMU,47685085,1,0.000596943,0.000555075,0.00056151,0.000189597,-0.001997028,-9.815831,0,0,27.82997,1,1,760,800
6977,55:23.5,IMU,47725069,0,0.000675559,0.000622556,0.000640906,-0.001197516,-0.000945889,-9.817085,0,0,27.83226,1,1,1000,1000
6978,55:23.5,IMU,47725069,1,0.000729476,0.000766951,0.000638888,-0.001804899,-0.002037763,-9.816643,0,0,27.83226,1,1,760,800
7072,55:23.6,IMU,47765053,0,0.000648705,0.000559451,0.000737392,-0.001044295,-0.000203857,-9.818608,0,0,27.8346,1,1,1000,1000
7073,55:23.6,IMU,47765053,1,0.00081215,0.000478188,0.000721605,-0.000933419,-0.002483964,-9.817231,0,0,27.8346,1,1,760,800
7126,55:23.6,IMU,47805037,0,0.000653555,0.000640749,0.000754373,-0.001166453,-0.001671484,-9.818482,0,0,27.83689,1,1,1000,1000
7127,55:23.6,IMU,47805037,1,0.000673594,0.000588246,0.000719206,-0.00026056,9.36156E-05,-9.816816,0,0,27.83689,1,1,760,800
7221,55:23.6,IMU,47845021,0,0.000659831,0.000662663,0.000688737,-0.000247573,0.000206439,-9.817678,0,0,27.83918,1,1,1000,1000
7222,55:23.6,IMU,47845021,1,0.000930481,0.000509382,0.000413937,-0.001038949,-0.001591059,-9.817488,0,0,27.83918,1,1,760,800
7273,55:23.7,IMU,47885005,0,0.00069005,0.000660201,0.000646844,-0.001309316,3.258165E-05,-9.817922,0,0,27.84147,1,1,1000,1000
7274,55:23.7,IMU,47885005,1,0.000698722,0.000544457,0.000736553,-0.000227747,-0.002022679,-9.821012,0,0,27.84147,1,1,760,800
7327,55:23.7,IMU,47924989,0,0.000630346,0.000632584,0.000653122,-0.000763786,0.000302767,-9.817378,0,0,27.8437,1,1,1000,1000
7328,55:23.7,IMU,47924989,1,0.000864781,0.000430105,0.000771277,-0.002395604,-0.000851405,-9.818432,0,0,27.8437,1,1,760,800
7421,55:23.8,IMU,47964973,0,0.000677711,0.000771502,0.000639608,-0.001300188,-0.002731167,-9.817172,0,0,27.84599,1,1,1000,1000
7422,55:23.8,IMU,47964973,1,0.000739954,0.000719999,0.00073756,-0.004199473,0.000352294,-9.814766,0,0,27.84599,1,1,760,800
7476,55:23.8,IMU,48004957,0,0.000680631,0.000613189,0.000691926,-0.001255236,-0.000492867,-9.81708,0,0,27.84827,1,1,1000,1000
7477,55:23.8,IMU,48004957,1,0.000633205,0.000608385,0.000473667,-0.002699882,-0.000694493,-9.815192,0,0,27.84827,1,1,760,800
7572,55:23.8,IMU,48044941,0,0.000630711,0.000634294,0.000692284,-0.001463122,-0.001375769,-9.817433,0,0,27.85056,1,1,1000,1000
7573,55:23.8,IMU,48044941,1,0.000765572,0.00041382,0.000691273,-0.001529859,0.000241321,-9.815641,0,0,27.85056,1,1,760,800
7625,55:23.9,IMU,48084925,0,0.000578582,0.000726228,0.000730085,-0.001297208,-0.000572888,-9.817221,0,0,27.85284,1,1,1000,1000
7626,55:23.9,IMU,48084925,1,0.00064062,0.000668316,0.000642649,-8.35E-05,-0.002659696,-9.816716,0,0,27.85284,1,1,760,800
7678,55:23.9,IMU,48124909,0,0.000719774,0.000674441,0.000692545,-0.001329366,-0.000298894,-9.817251,0,0,27.85513,1,1,1000,1000
7679,55:23.9,IMU,48124909,1,0.000886547,0.000318901,0.000772475,-0.001316557,-0.000836404,-9.819491,0,0,27.85513,1,1,760,800
7778,55:24.0,IMU,48164893,0,0.000647214,0.000678023,0.000642228,-0.000707676,-0.002659768,-9.817011,0,0,27.85742,1,1,1000,1000
7779,55:24.0,IMU,48164893,1,0.000593809,0.000474906,0.000855793,-0.001571756,-9.56E-05,-9.819063,0,0,27.85742,1,1,760,800
7832,55:24.0,IMU,48204877,0,0.000639438,0.000685104,0.000678072,-0.000579758,-0.000687796,-9.817373,0,0,27.8597,1,1,1000,1000
7833,55:24.0,IMU,48204877,1,0.000756809,0.000640424,0.000491993,-0.003063677,-0.003921445,-9.816767,0,0,27.8597,1,1,760,800
7931,55:24.0,IMU,48244861,0,0.000670343,0.00063846,0.00064469,-0.000907121,-0.000923058,-9.817087,0,0,27.86199,1,1,1000,1000
7932,55:24.0,IMU,48244861,1,0.000613573,0.000535301,0.00070924,-0.002250444,-0.001423688,-9.818862,0,0,27.86199,1,1,760,800
7983,55:24.1,IMU,48284845,0,0.000686503,0.00070553,0.000670846,-0.001844993,-0.001195786,-9.817347,0,0,27.86427,1,1,1000,1000
7984,55:24.1,IMU,48284845,1,0.000953472,0.000410065,0.000604958,0.000178794,0.000160282,-9.818068,0,0,27.86427,1,1,760,800
8035,55:24.1,IMU,48324829,0,0.000673981,0.000661989,0.00072011,-0.001230479,-0.001470555,-9.816328,0,0,27.86656,1,1,1000,1000
8036,55:24.1,IMU,48324829,1,0.000597283,0.000678504,0.000452418,0.00073121,-0.002950668,-9.817054,0,0,27.86656,1,1,760,800
8136,55:24.2,IMU,48364813,0,0.000673362,0.000637738,0.000663815,-0.000321277,-0.000862094,-9.817354,0,0,27.86884,1,1,1000,1000
8137,55:24.2,IMU,48364813,1,0.000694837,0.000629641,0.000765206,-0.002545244,0.001233904,-9.816484,0,0,27.86884,1,1,760,800
8192,55:24.2,IMU,48404797,0,0.000660738,0.000643838,0.000630163,-0.000980548,-0.001630926,-9.817659,0,0,27.87113,1,1,1000,1000
8193,55:24.2,IMU,48404797,1,0.000791845,0.000596552,0.000556539,-0.000811983,-0.000752142,-9.81838,0,0,27.87113,1,1,760,800
8293,55:24.2,IMU,48444781,0,0.00061389,0.000794716,0.000593513,-0.000539405,-0.000237207,-9.817832,0,0,27.87341,1,1,1000,1000
8294,55:24.2,IMU,48444781,1,0.000513182,0.000553067,0.000756834,-0.000595933,-0.003187919,-9.817432,0,0,27.87341,1,1,760,800
8347,55:24.3,IMU,48484765,0,0.000686499,0.00063197,0.000651291,-0.001498313,-0.001891556,-9.816823,0,0,27.87569,1,1,1000,1000
8348,55:24.3,IMU,48484765,1,0.000790381,0.000437857,0.000751794,-0.000832288,-0.000183504,-9.818955,0,0,27.87569,1,1,760,800
8400,55:24.3,IMU,48524749,0,0.000706773,0.000668946,0.000680817,-0.00203743,-0.001145293,-9.817614,0,0,27.87798,1,1,1000,1000
8401,55:24.3,IMU,48524749,1,0.000764819,0.000746729,0.000697028,-0.000535097,-8.51E-05,-9.815933,0,0,27.87798,1,1,760,800
8502,55:24.4,IMU,48564733,0,0.000608704,0.000700549,0.000649165,-0.001711508,-0.00130099,-9.817051,0,0,27.88026,1,1,1000,1000
8503,55:24.4,IMU,48564733,1,0.000716856,0.000542149,0.000682935,-0.003009643,6.532563E-05,-9.816699,0,0,27.88026,1,1,760,800
8557,55:24.4,IMU,48604717,0,0.000646843,0.000664469,0.000722033,-0.000247672,-0.000634654,-9.818973,0,0,27.88254,1,1,1000,1000
8558,55:24.4,IMU,48604717,1,0.000763263,0.000710987,0.000602745,0.001187236,-0.000810573,-9.818593,0,0,27.88254,1,1,760,800
8655,55:24.4,IMU,48644701,0,0.000622623,0.000633473,0.000702216,-0.001339124,-0.002449411,-9.817275,0,0,27.88482,1,1,1000,1000
8656,55:24.4,IMU,48644701,1,0.001018787,0.000311826,0.000443086,-0.003067341,-0.002385192,-9.816783,0,0,27.88482,1,1,760,800
8707,55:24.5,IMU,48684685,0,0.000688166,0.000670288,0.000735357,-0.001490506,-0.000618913,-9.817926,0,0,27.8871,1,1,1000,1000
8708,55:24.5,IMU,48684685,1,0.000835877,0.000547101,0.000535875,4.273501E-05,-0.000137573,-9.818502,0,0,27.8871,1,1,760,800
8760,55:24.5,IMU,48724669,0,0.000681136,0.000729974,0.000673956,-0.000551642,-0.000215487,-9.817181,0,0,27.88939,1,1,1000,1000
8761,55:24.5,IMU,48724669,1,0.00045341,0.000667996,0.000569772,-0.000964476,-0.001080149,-9.819023,0,0,27.88939,1,1,760,800
8859,55:24.6,IMU,48764653,0,0.000701709,0.00067522,0.000715006,-0.002024377,-0.000112178,-9.817002,0,0,27.89167,1,1,1000,1000
8860,55:24.6,IMU,48764653,1,0.000697676,0.000575921,0.000826653,-2.87E-05,0.000323503,-9.814787,0,0,27.89167,1,1,760,800
8914,55:24.6,IMU,48804637,0,0.000627466,0.000631777,0.000683718,-0.001915712,-0.000708564,-9.817965,0,0,27.89395,1,1,1000,1000
8915,55:24.6,IMU,48804637,1,0.000705804,0.000719468,0.000653061,-0.001014896,0.001353452,-9.816832,0,0,27.89395,1,1,760,800
9013,55:24.6,IMU,48844621,0,0.000643707,0.000709325,0.000646973,-0.000440332,-0.000817993,-9.817953,0,0,27.89623,1,1,1000,1000
9014,55:24.6,IMU,48844621,1,0.000773514,0.000507921,0.000668611,-0.001242559,0.000738741,-9.815783,0,0,27.89623,1,1,760,800
9064,55:24.7,IMU,48884605,0,0.000658392,0.000669369,0.00069379,-0.000748962,-0.001296584,-9.817278,0,0,27.89851,1,1,1000,1000
9065,55:24.7,IMU,48884605,1,0.000646356,0.000604406,0.000766274,-0.002197924,-0.001379251,-9.816675,0,0,27.89851,1,1,760,800
9118,55:24.7,IMU,48924589,0,0.000595953,0.000632022,0.000726098,-0.000789466,-0.002050604,-9.818009,0,0,27.90079,1,1,1000,1000
9119,55:24.7,IMU,48924589,1,0.00087353,0.000617741,0.000432662,0.001109384,-0.002687989,-9.817449,0,0,27.90079,1,1,760,800
9219,55:24.8,IMU,48965406,0,0.000700928,0.000640091,0.000622842,-0.000426974,-0.001397109,-9.817677,0,0,27.90313,1,1,1000,1000
9220,55:24.8,IMU,48965406,1,0.000971005,0.000533196,0.000604737,-0.001420939,0.000837156,-9.820259,0,0,27.90307,1,1,760,800
9273,55:24.8,IMU,49005390,0,0.000642585,0.000697937,0.000577122,-0.001238477,-0.001352184,-9.817863,0,0,27.90541,1,1,1000,1000
9274,55:24.8,IMU,49005390,1,0.00060857,0.000356386,0.000395792,-0.000110963,-0.001019449,-9.817515,0,0,27.90535,1,1,760,800
9374,55:24.8,IMU,49045374,0,0.00068206,0.000612223,0.000707168,-0.00101973,-0.000749673,-9.817549,0,0,27.90768,1,1,1000,1000
9375,55:24.8,IMU,49045374,1,0.000635966,0.000715106,0.000599607,-0.002690966,0.000747597,-9.815622,0,0,27.90763,1,1,760,800
9426,55:24.9,IMU,49085358,0,0.000657522,0.000710484,0.000702726,-0.001314244,-0.00118409,-9.81752,0,0,27.90996,1,1,1000,1000
9427,55:24.9,IMU,49085358,1,0.000539891,0.000781303,0.000763841,-0.001462188,-0.001425255,-9.81779,0,0,27.90991,1,1,760,800
9478,55:24.9,IMU,49125342,0,0.000609899,0.000708926,0.000675982,-0.002332619,-0.000320161,-9.817361,0,0,27.91224,1,1,1000,1000
9479,55:24.9,IMU,49125342,1,0.000803422,0.000756226,0.000632047,0.000310125,0.001609623,-9.81741,0,0,27.91219,1,1,760,800
9578,55:25.0,IMU,49165326,0,0.000606369,0.00063159,0.000786214,-0.001862282,-0.002008852,-9.817459,0,0,27.91452,1,1,1000,1000
9579,55:25.0,IMU,49165326,1,0.000808231,0.000450932,0.000935253,-0.004090419,-0.002083823,-9.817632,0,0,27.91446,1,1,760,800
9633,55:25.0,IMU,49205310,0,0.000669592,0.00071545,0.000592071,-0.001163151,-0.001824956,-9.816104,0,0,27.9168,1,1,1000,1000
9634,55:25.0,IMU,49205310,1,0.000774397,0.000687883,0.000624954,-0.001231232,-0.002338454,-9.818385,0,0,27.91674,1,1,760,800
9731,55:25.0,IMU,49245294,0,0.000648644,0.000692862,0.000708224,-0.001234061,-0.000403684,-9.817618,0,0,27.91908,1,1,1000,1000
9732,55:25.0,IMU,49245294,1,0.000654611,0.000604617,0.000712632,-0.000689447,0.001254143,-9.816431,0,0,27.91902,1,1,760,800
9783,55:25.1,IMU,49285278,0,0.000723703,0.000728246,0.000680698,-0.001556519,-0.001395729,-9.816756,0,0,27.92135,1,1,1000,1000
9784,55:25.1,IMU,49285278,1,0.000711079,0.000955868,0.000576699,-0.000537564,-0.000649959,-9.817952,0,0,27.9213,1,1,760,800
9836,55:25.1,IMU,49325262,0,0.000628502,0.000717864,0.000658349,-0.001267048,-0.001131519,-9.816707,0,0,27.92363,1,1,1000,1000
9837,55:25.1,IMU,49325262,1,0.000553925,0.000533359,0.000458165,-0.001244363,-0.002476631,-9.817155,0,0,27.92357,1,1,760,800
9936,55:25.2,IMU,49365246,0,0.000616599,0.000649102,0.000650442,-0.000882045,-0.001648691,-9.817629,0,0,27.92591,1,1,1000,1000
9937,55:25.2,IMU,49365246,1,0.000730296,0.000780863,0.000766543,-0.000362643,-0.002935851,-9.818877,0,0,27.92585,1,1,760,800
9992,55:25.2,IMU,49405230,0,0.000712466,0.000680988,0.000677075,-0.000830566,-0.000427315,-9.817393,0,0,27.92813,1,1,1000,1000
9993,55:25.2,IMU,49405230,1,0.000748268,0.000653297,0.00093334,-0.0013483,-0.002375531,-9.816261,0,0,27.92813,1,1,760,800
10093,55:25.2,IMU,49445214,0,0.000672453,0.000679255,0.000666126,-0.001572638,-0.001704318,-9.81838,0,0,27.9304,1,1,1000,1000
10094,55:25.2,IMU,49445214,1,0.000633593,0.000613029,0.00078244,-0.001976058,-0.001342729,-9.816868,0,0,27.9304,1,1,760,800
10148,55:25.3,IMU,49485198,0,0.000725475,0.000710447,0.000710323,-0.000901901,-0.001748905,-9.818645,0,0,27.93268,1,1,1000,1000
10149,55:25.3,IMU,49485198,1,0.000489496,0.000320148,0.000747666,-0.001396667,-0.000528062,-9.817245,0,0,27.93268,1,1,760,800
10201,55:25.3,IMU,49525182,0,0.000590686,0.000730089,0.00066819,-0.001568289,-0.001270923,-9.818338,0,0,27.93495,1,1,1000,1000
10202,55:25.3,IMU,49525182,1,0.000752132,0.000801981,0.00079751,-0.001175482,-0.000584485,-9.818015,0,0,27.93495,1,1,760,800
10303,55:25.4,IMU,49565166,0,0.000741858,0.000736188,0.000732404,-0.000786258,-0.001890448,-9.817808,0,0,27.93723,1,1,1000,1000
10304,55:25.4,IMU,49565166,1,0.000498781,0.000665975,0.000573602,-0.001686663,-0.000954949,-9.816771,0,0,27.93723,1,1,760,800
10358,55:25.4,IMU,49605150,0,0.000635088,0.000620194,0.000688024,-0.001656595,-0.000383998,-9.817318,0,0,27.9395,1,1,1000,1000
10359,55:25.4,IMU,49605150,1,0.000710551,0.000651151,0.000628709,-0.000464107,0.000183691,-9.819284,0,0,27.9395,1,1,760,800
10457,55:25.4,IMU,49645134,0,0.000665072,0.000672623,0.000710255,-0.000490768,-0.001212024,-9.818595,0,0,27.94178,1,1,1000,1000
10458,55:25.4,IMU,49645134,1,0.000755283,0.000614865,0.000733784,-0.001125885,-0.000654503,-9.81645,0,0,27.94178,1,1,760,800
10508,55:25.5,IMU,49685118,0,0.000644036,0.000664732,0.000652532,-0.001052547,-0.000601937,-9.818695,0,0,27.94405,1,1,1000,1000
10509,55:25.5,IMU,49685118,1,0.000660974,0.000795786,0.000793365,-0.001031954,-0.000923352,-9.816493,0,0,27.94405,1,1,760,800
10561,55:25.5,IMU,49725102,0,0.000637123,0.000705295,0.000635655,-0.00105714,-0.001505509,-9.817656,0,0,27.94633,1,1,1000,1000
10562,55:25.5,IMU,49725102,1,0.000497451,0.000701751,0.00070115,-0.001421464,0.001875423,-9.816381,0,0,27.94633,1,1,760,800
10661,55:25.6,IMU,49765086,0,0.000685217,0.000648646,0.000670638,-0.000992756,-0.001178461,-9.818712,0,0,27.9486,1,1,1000,1000
10662,55:25.6,IMU,49765086,1,0.000842816,0.000701115,0.000779633,0.001327508,-0.00019282,-9.817652,0,0,27.9486,1,1,760,800
10716,55:25.6,IMU,49805070,0,0.000675059,0.000707839,0.000687151,-0.00169377,-0.00129479,-9.816618,0,0,27.95087,1,1,1000,1000
10717,55:25.6,IMU,49805070,1,0.00078736,0.000721333,0.000518619,-0.000678007,0.000478496,-9.817579,0,0,27.95087,1,1,760,800
10814,55:25.6,IMU,49845054,0,0.000631225,0.000720775,0.000683019,-0.000390423,-0.000909688,-9.818329,0,0,27.9532,1,1,1000,1000
10815,55:25.6,IMU,49845054,1,0.000770513,0.000469474,0.000570529,0.000342918,-0.000977161,-9.817806,0,0,27.9532,1,1,760,800
10866,55:25.7,IMU,49885038,0,0.000746071,0.000734801,0.000698764,-0.001069784,-0.001373921,-9.817561,0,0,27.95548,1,1,1000,1000
10867,55:25.7,IMU,49885038,1,0.000702008,0.000657659,0.000795188,-0.003839953,-0.002241925,-9.818115,0,0,27.95548,1,1,760,800
10920,55:25.7,IMU,49925022,0,0.000697433,0.000690079,0.000679059,-0.000813282,-0.000877377,-9.816969,0,0,27.95775,1,1,1000,1000
10921,55:25.7,IMU,49925022,1,0.00081248,0.00073379,0.000714129,-0.001218464,-0.002037439,-9.817745,0,0,27.95775,1,1,760,800
11021,55:25.8,IMU,49965006,0,0.000599896,0.000707948,0.000722008,-0.000784555,-0.001068815,-9.818053,0,0,27.96002,1,1,1000,1000
11022,55:25.8,IMU,49965006,1,0.000759653,0.000701578,0.000700405,-0.000322533,0.000699392,-9.816547,0,0,27.96002,1,1,760,800
11075,55:25.8,IMU,50004990,0,0.000635154,0.00070817,0.000647922,-0.000471013,-0.001524188,-9.817455,0,0,27.96224,1,1,1000,1000
11076,55:25.8,IMU,50004990,1,0.000581929,0.000637584,0.000899592,-0.00117567,-0.001661006,-9.819818,0,0,27.96224,1,1,760,800
11176,55:25.8,IMU,50044974,0,0.000682674,0.000749582,0.000687819,2.129504E-05,0.000320065,-9.817792,0,0,27.96451,1,1,1000,1000
11177,55:25.8,IMU,50044974,1,0.000912962,0.000605992,0.000680998,-0.000239216,-0.00213383,-9.818506,0,0,27.96451,1,1,760,800
11228,55:25.9,IMU,50084958,0,0.000683232,0.000630199,0.000713721,-0.001174118,-0.001684597,-9.817943,0,0,27.96678,1,1,1000,1000
11229,55:25.9,IMU,50084958,1,0.000480064,0.000465645,0.000504078,-0.000947199,0.000298133,-9.815904,0,0,27.96678,1,1,760,800
11280,55:25.9,IMU,50124942,0,0.000612633,0.000658811,0.000650136,-0.001438624,-0.0010974,-9.817301,0,0,27.96905,1,1,1000,1000
11281,55:25.9,IMU,50124942,1,0.000706088,0.000570196,0.000789259,-0.000578596,0.000556575,-9.818971,0,0,27.96905,1,1,760,800
11380,55:26.0,IMU,50164926,0,0.000711352,0.000746018,0.000624441,-0.000929966,-0.000348745,-9.817225,0,0,27.97132,1,1,1000,1000
11381,55:26.0,IMU,50164926,1,0.000990962,0.000807124,0.000646173,-0.001149996,-0.002834005,-9.81674,0,0,27.97132,1,1,760,800
11435,55:26.0,IMU,50204910,0,0.000605285,0.000774882,0.000719861,-0.002293896,-0.001218676,-9.817411,0,0,27.97359,1,1,1000,1000
11436,55:26.0,IMU,50204910,1,0.000971137,0.000587162,0.000595507,-0.002474885,-0.000939759,-9.819268,0,0,27.97359,1,1,760,800
11533,55:26.0,IMU,50244894,0,0.000634837,0.000686883,0.000663074,-0.001520801,-0.001102109,-9.818273,0,0,27.97586,1,1,1000,1000
11534,55:26.0,IMU,50244894,1,0.000712985,0.000674923,0.000757268,-0.001958624,0.000574262,-9.818295,0,0,27.97586,1,1,760,800
11585,55:26.1,IMU,50284878,0,0.000612365,0.000651949,0.000562123,-0.001305712,-0.000583013,-9.816538,0,0,27.97813,1,1,1000,1000
11586,55:26.1,IMU,50284878,1,0.000791219,0.000814531,0.00065296,7.598175E-05,-0.001829993,-9.818264,0,0,27.97813,1,1,760,800
11638,55:26.1,IMU,50324862,0,0.000659776,0.000620626,0.000746213,-0.000676489,-0.001005909,-9.816881,0,0,27.9804,1,1,1000,1000
11639,55:26.1,IMU,50324862,1,0.000672975,0.00052177,0.000813126,-0.002885334,-0.001009215,-9.817604,0,0,27.9804,1,1,760,800
11738,55:26.2,IMU,50364846,0,0.000711247,0.000690661,0.00071047,-0.001412193,-0.000647613,-9.817173,0,0,27.98267,1,1,1000,1000
11739,55:26.2,IMU,50364846,1,0.000799178,0.000459471,0.00067215,-0.002223527,-0.001511363,-9.815614,0,0,27.98267,1,1,760,800
11794,55:26.2,IMU,50404830,0,0.000686617,0.000689107,0.000796235,-0.000139432,-0.001322479,-9.817775,0,0,27.98494,1,1,1000,1000
11795,55:26.2,IMU,50404830,1,0.000497811,0.000709955,0.000979224,-0.001857533,-0.003594253,-9.817193,0,0,27.98494,1,1,760,800
11895,55:26.2,IMU,50444814,0,0.000691124,0.000752766,0.000621031,-0.001359215,-0.000725547,-9.817581,0,0,27.98721,1,1,1000,1000
11896,55:26.2,IMU,50444814,1,0.000671817,0.000696553,0.000696833,-0.001128963,-0.001115967,-9.817227,0,0,27.98721,1,1,760,800
11949,55:26.3,IMU,50484798,0,0.000638803,0.000681954,0.000721983,-0.000908555,-0.000507247,-9.817208,0,0,27.98948,1,1,1000,1000
11950,55:26.3,IMU,50484798,1,0.000676789,0.000721769,0.000798122,-0.00176739,7.852176E-05,-9.81679,0,0,27.98948,1,1,760,800
12002,55:26.3,IMU,50524782,0,0.000680636,0.000709169,0.000777459,-0.000675622,-0.001147235,-9.817385,0,0,27.99174,1,1,1000,1000
12003,55:26.3,IMU,50524782,1,0.000699342,0.000684094,0.000548937,-2.59E-05,-0.002987327,-9.818515,0,0,27.99174,1,1,760,800
12105,55:26.4,IMU,50564766,0,0.000729662,0.000672022,0.000684913,-0.001076463,-0.001042099,-9.818268,0,0,27.99401,1,1,1000,1000
12106,55:26.4,IMU,50564766,1,0.000785057,0.00049507,0.000747758,0.000143839,-0.000301549,-9.818867,0,0,27.99401,1,1,760,800
12159,55:26.4,IMU,50604750,0,0.000617362,0.000699443,0.000636501,-0.0016738,-0.001836899,-9.8176,0,0,27.99628,1,1,1000,1000
12160,55:26.4,IMU,50604750,1,0.000969731,0.000494731,0.000572916,-0.0031216,-0.002131019,-9.817424,0,0,27.99628,1,1,760,800
12258,55:26.4,IMU,50644734,0,0.000669099,0.00071895,0.000687734,-0.000653307,-0.000302257,-9.817378,0,0,27.99854,1,1,1000,1000
12259,55:26.4,IMU,50644734,1,0.000716821,0.000716971,0.000824488,0.000393759,0.000211458,-9.818047,0,0,27.99854,1,1,760,800
12312,55:26.5,IMU,50684718,0,0.000752976,0.000736552,0.00062543,-0.001225224,-0.00200394,-9.817262,0,0,28.00081,1,1,1000,1000
12313,55:26.5,IMU,50684718,1,0.000665512,0.000783557,0.000570354,-0.001668374,-0.000961884,-9.817284,0,0,28.00081,1,1,760,800
12364,55:26.5,IMU,50724702,0,0.000720268,0.000746085,0.000715446,-0.000103091,-0.001297073,-9.817425,0,0,28.00308,1,1,1000,1000
12365,55:26.5,IMU,50724702,1,0.000735477,0.000727719,0.000898581,0.000248921,-0.001815422,-9.817638,0,0,28.00308,1,1,760,800
12464,55:26.6,IMU,50764686,0,0.000661544,0.000789049,0.000733647,-0.001855497,-0.000530615,-9.817837,0,0,28.00534,1,1,1000,1000
12465,55:26.6,IMU,50764686,1,0.000874963,0.000650431,0.0006196,-0.00033953,-0.000337187,-9.816776,0,0,28.00534,1,1,760,800
12519,55:26.6,IMU,50804670,0,0.000716048,0.000721687,0.000616705,-0.00140101,-0.001240382,-9.817432,0,0,28.00761,1,1,1000,1000
12520,55:26.6,IMU,50804670,1,0.000596384,0.000932013,0.000720266,-0.002805837,-0.000288266,-9.816543,0,0,28.00761,1,1,760,800
12619,55:26.6,IMU,50844654,0,0.000781851,0.000764332,0.000698268,-0.001041662,-0.00144334,-9.817497,0,0,28.00988,1,1,1000,1000
12620,55:26.6,IMU,50844654,1,0.000763659,0.000709687,0.000577145,-0.001292305,-0.00109278,-9.816445,0,0,28.00988,1,1,760,800
12671,55:26.7,IMU,50884638,0,0.000659263,0.000695965,0.00074725,-0.000632708,-0.000692347,-9.817605,0,0,28.01214,1,1,1000,1000
12672,55:26.7,IMU,50884638,1,0.0003036,0.00064169,0.000609984,-0.001660765,-0.001238104,-9.815988,0,0,28.01214,1,1,760,800
12725,55:26.7,IMU,50924622,0,0.00068725,0.000767464,0.000690376,-0.001203522,-0.000374269,-9.818645,0,0,28.01441,1,1,1000,1000
12726,55:26.7,IMU,50924622,1,0.000757561,0.000665791,0.000629199,0.001401107,-0.000631811,-9.817101,0,0,28.01441,1,1,760,800
12825,55:26.8,IMU,50964606,0,0.000648164,0.000747087,0.000748227,-0.002503469,-0.000386084,-9.817146,0,0,28.01667,1,1,1000,1000
12826,55:26.8,IMU,50964606,1,0.00070162,0.000797656,0.000831307,0.000811182,-0.000793394,-9.818463,0,0,28.01667,1,1,760,800
12880,55:26.8,IMU,51004590,0,0.000695972,0.000745782,0.000762653,-0.000449658,-0.000921259,-9.818011,0,0,28.01893,1,1,1000,1000
12881,55:26.8,IMU,51004590,1,0.000853126,0.001106884,0.000769902,-3.54E-05,-0.001614183,-9.817128,0,0,28.01893,1,1,760,800
12981,55:26.8,IMU,51045407,0,0.000693868,0.000605677,0.000669166,-0.000504072,-0.00096598,-9.818177,0,0,28.02126,1,1,1000,1000
12982,55:26.8,IMU,51045407,1,0.000571008,0.000562056,0.000717738,-0.00145119,-0.001278069,-9.818596,0,0,28.0212,1,1,760,800
13033,55:26.9,IMU,51085391,0,0.000682605,0.000710115,0.000669318,-0.001111187,-0.000764136,-9.817753,0,0,28.02352,1,1,1000,1000
13034,55:26.9,IMU,51085391,1,0.000997651,0.000871519,0.000846025,-0.000977698,-0.002776436,-9.818508,0,0,28.02346,1,1,760,800
13085,55:26.9,IMU,51125375,0,0.000690901,0.000705255,0.000782371,-0.00141334,-0.001066886,-9.81813,0,0,28.02578,1,1,1000,1000
13086,55:26.9,IMU,51125375,1,0.000451442,0.000648599,0.000681914,0.001072591,-0.000371706,-9.818417,0,0,28.02572,1,1,760,800
13185,55:27.0,IMU,51165359,0,0.000650047,0.000695373,0.000709947,-0.001853118,0.000191496,-9.817868,0,0,28.02805,1,1,1000,1000
13186,55:27.0,IMU,51165359,1,0.000719412,0.000803364,0.000754846,-0.00139989,0.000813285,-9.81831,0,0,28.02799,1,1,760,800
13240,55:27.0,IMU,51205343,0,0.000715641,0.000720501,0.000702297,0.000278073,-0.002045423,-9.817709,0,0,28.03031,1,1,1000,1000
13241,55:27.0,IMU,51205343,1,0.000778619,0.000494514,0.000790024,-0.001968274,-0.001951269,-9.81991,0,0,28.03025,1,1,760,800
13338,55:27.0,IMU,51245327,0,0.000718046,0.000723102,0.000723092,-0.001362036,-0.000776345,-9.8173,0,0,28.03257,1,1,1000,1000
13339,55:27.0,IMU,51245327,1,0.000809989,0.000759822,0.000589536,-0.000509352,-0.000352066,-9.817473,0,0,28.03251,1,1,760,800
13390,55:27.1,IMU,51285311,0,0.00068651,0.000697761,0.000719398,-0.001387189,-0.001325722,-9.817201,0,0,28.03483,1,1,1000,1000
13391,55:27.1,IMU,51285311,1,0.000727914,0.000726749,0.000884783,-0.00259425,0.001129443,-9.816664,0,0,28.03478,1,1,760,800
13443,55:27.1,IMU,51325295,0,0.000622313,0.000718848,0.00071495,9.8275E-05,0.000342768,-9.81599,0,0,28.03709,1,1,1000,1000
13444,55:27.1,IMU,51325295,1,0.000733167,0.00060868,0.000547959,-0.003238373,-0.002121366,-9.81946,0,0,28.03704,1,1,760,800
13543,55:27.2,IMU,51365279,0,0.000690201,0.000777592,0.000704878,-0.000817902,-0.001285501,-9.817222,0,0,28.03936,1,1,1000,1000
13544,55:27.2,IMU,51365279,1,0.0007399,0.000829857,0.000849088,-0.001537622,-0.002530403,-9.81778,0,0,28.0393,1,1,760,800
13598,55:27.2,IMU,51405263,0,0.000672449,0.00060707,0.000674167,-0.001048054,-0.000207168,-9.818289,0,0,28.04162,1,1,1000,1000
13599,55:27.2,IMU,51405263,1,0.000730447,0.000831033,0.000781418,-0.000795311,2.269952E-05,-9.817829,0,0,28.04156,1,1,760,800
13700,55:27.2,IMU,51445247,0,0.000734609,0.000741295,0.00075197,-0.000203492,0.00011221,-9.818071,0,0,28.04388,1,1,1000,1000
13701,55:27.2,IMU,51445247,1,0.000948953,0.000626023,0.000712304,-0.000113336,-0.002313001,-9.817243,0,0,28.04382,1,1,760,800
13753,55:27.3,IMU,51485231,0,0.000668244,0.000733227,0.000701369,-0.00170548,-0.001619071,-9.817868,0,0,28.04608,1,1,1000,1000
13754,55:27.3,IMU,51485231,1,0.000640182,0.00064597,0.000630504,-4.97E-05,-0.000933188,-9.820102,0,0,28.04608,1,1,760,800
13807,55:27.3,IMU,51525215,0,0.000709698,0.000663442,0.000708152,-0.001453405,-0.001469189,-9.816886,0,0,28.04834,1,1,1000,1000
13808,55:27.3,IMU,51525215,1,0.000620023,0.000823477,0.000706779,-0.000382007,-0.000969779,-9.818389,0,0,28.04834,1,1,760,800
13910,55:27.4,IMU,51565199,0,0.000657439,0.000805076,0.00066532,-0.000383656,-0.00177778,-9.816936,0,0,28.0506,1,1,1000,1000
13911,55:27.4,IMU,51565199,1,0.000842621,0.000892599,0.000714933,-0.002190613,-0.000755914,-9.815516,0,0,28.0506,1,1,760,800
13964,55:27.4,IMU,51605183,0,0.000738643,0.000689133,0.000701671,-0.000818809,-0.001641208,-9.818578,0,0,28.05286,1,1,1000,1000
13965,55:27.4,IMU,51605183,1,0.000448203,0.000690053,0.000750166,-0.001042621,-0.000653921,-9.818952,0,0,28.05286,1,1,760,800
14063,55:27.4,IMU,51645167,0,0.000763517,0.000737264,0.000692828,-0.000487884,-0.001081481,-9.818146,0,0,28.05512,1,1,1000,1000
14064,55:27.4,IMU,51645167,1,0.000943582,0.000553426,0.000370517,-0.000861921,-0.000743741,-9.816207,0,0,28.05512,1,1,760,800
14115,55:27.5,IMU,51685151,0,0.00065775,0.00070814,0.000705793,-0.000349826,-0.000339463,-9.81655,0,0,28.05738,1,1,1000,1000
14116,55:27.5,IMU,51685151,1,0.000812042,0.000407226,0.000712321,-0.000635674,-0.001990243,-9.816662,0,0,28.05738,1,1,760,800
14167,55:27.5,IMU,51725135,0,0.000748766,0.000617365,0.00079161,-0.001457195,3.590761E-05,-9.816805,0,0,28.05964,1,1,1000,1000
14168,55:27.5,IMU,51725135,1,0.00085187,0.000879743,0.000703295,-0.001410564,0.000156449,-9.816828,0,0,28.05964,1,1,760,800
14267,55:27.6,IMU,51765119,0,0.000694466,0.000724727,0.000724602,-0.000966145,-0.000868228,-9.818406,0,0,28.0619,1,1,1000,1000
14268,55:27.6,IMU,51765119,1,0.000836328,0.000572948,0.000781562,0.001308896,-0.002053678,-9.816553,0,0,28.0619,1,1,760,800
14322,55:27.6,IMU,51805103,0,0.000714272,0.000827697,0.000673996,-0.001075558,-0.001590489,-9.817439,0,0,28.06416,1,1,1000,1000
14323,55:27.6,IMU,51805103,1,0.000813256,0.00072587,0.000568577,-0.000573143,0.000903837,-9.819113,0,0,28.06416,1,1,760,800
14420,55:27.6,IMU,51845087,0,0.000709022,0.00078634,0.000749279,-0.001126225,-0.000432253,-9.817138,0,0,28.06641,1,1,1000,1000
14421,55:27.6,IMU,51845087,1,0.000870915,0.000622021,0.000692136,-1.54E-05,0.001205232,-9.818355,0,0,28.06641,1,1,760,800
14472,55:27.7,IMU,51885071,0,0.000715909,0.000670904,0.00066762,-0.000973379,-0.001207053,-9.816734,0,0,28.06867,1,1,1000,1000
14473,55:27.7,IMU,51885071,1,0.000552883,0.000779324,0.00055778,-0.0002603,-0.001403981,-9.818165,0,0,28.06867,1,1,760,800
14526,55:27.7,IMU,51925055,0,0.00073353,0.000655983,0.000703673,-0.001696456,-0.000988074,-9.817074,0,0,28.07099,1,1,1000,1000
14527,55:27.7,IMU,51925055,1,0.000696727,0.000859276,0.000840233,-0.000503842,0.00118636,-9.816677,0,0,28.07099,1,1,760,800
14625,55:27.8,IMU,51965039,0,0.000747415,0.000747109,0.000785816,-0.000789175,9.665291E-06,-9.81732,0,0,28.07324,1,1,1000,1000
14626,55:27.8,IMU,51965039,1,0.000748645,0.000515533,0.001076497,-0.003204426,-0.000817547,-9.817148,0,0,28.07324,1,1,760,800
14680,55:27.8,IMU,52005023,0,0.000719634,0.000789122,0.000734271,-0.000494117,2.735375E-06,-9.817202,0,0,28.0755,1,1,1000,1000
14681,55:27.8,IMU,52005023,1,0.000570635,0.00059812,0.000699343,-0.000697872,-0.000866058,-9.818625,0,0,28.0755,1,1,760,800
14782,55:27.8,IMU,52045007,0,0.00073075,0.000694136,0.000750455,0.000593345,-0.000348797,-9.817301,0,0,28.07776,1,1,1000,1000
14783,55:27.8,IMU,52045007,1,0.000843953,0.000766745,0.000586756,-0.001373546,-0.001744863,-9.814924,0,0,28.07776,1,1,760,800
14835,55:27.9,IMU,52084991,0,0.000720828,0.000804982,0.000779464,-0.000520596,-4.46E-05,-9.815475,0,0,28.07996,1,1,1000,1000
14836,55:27.9,IMU,52084991,1,0.000811447,0.000582747,0.000710468,-0.0011345,-0.000526505,-9.817245,0,0,28.07996,1,1,760,800
14888,55:27.9,IMU,52124975,0,0.000708374,0.000760497,0.000752911,-0.001229228,-0.000356475,-9.818312,0,0,28.08221,1,1,1000,1000
14889,55:27.9,IMU,52124975,1,0.000872125,0.000826675,0.0007326,0.000725574,-0.000136358,-9.817733,0,0,28.08221,1,1,760,800
14988,55:28.0,IMU,52164959,0,0.000740218,0.000735208,0.000713222,-0.000375807,-0.001079749,-9.816753,0,0,28.08447,1,1,1000,1000
14989,55:28.0,IMU,52164959,1,0.000801631,0.00079102,0.000798252,0.000318782,-0.000423765,-9.818361,0,0,28.08447,1,1,760,800
15042,55:28.0,IMU,52204943,0,0.000696923,0.000709574,0.000762469,-0.001939023,-0.000660592,-9.817711,0,0,28.08672,1,1,1000,1000
15043,55:28.0,IMU,52204943,1,0.000783008,0.000797103,0.000910405,-0.001251167,-4.26E-05,-9.82042,0,0,28.08672,1,1,760,800
15141,55:28.0,IMU,52244927,0,0.000697514,0.00075281,0.000722771,-0.001109496,-0.001163801,-9.817071,0,0,28.08898,1,1,1000,1000
15142,55:28.0,IMU,52244927,1,0.000819724,0.000591773,0.000592392,0.001218765,-0.00140642,-9.815388,0,0,28.08898,1,1,760,800
15193,55:28.1,IMU,52284911,0,0.000674704,0.000740044,0.000725261,0.01360296,0.000194142,-9.817259,0,0,28.09123,1,1,1000,1000
15194,55:28.1,IMU,52284911,1,0.000803613,0.000594118,0.000723397,0.01132391,0.00123717,-9.819457,0,0,28.09123,1,1,760,800
15245,55:28.1,IMU,52324895,0,0.000706209,0.000755852,0.000717955,0.01507533,-0.00015394,-9.817235,0,0,28.09349,1,1,1000,1000
15246,55:28.1,IMU,52324895,1,0.000727603,0.000532546,0.000782001,0.01471993,-0.000777266,-9.820127,0,0,28.09349,1,1,760,800
15346,55:28.2,IMU,52364879,0,0.00075401,0.00067312,0.000667121,0.01296798,0.00074404,-9.817297,0,0,28.09574,1,1,1000,1000
15347,55:28.2,IMU,52364879,1,0.000803588,0.000736307,0.000700346,0.0115493,0.000819373,-9.816489,0,0,28.09574,1,1,760,800
15401,55:28.2,IMU,52404863,0,0.000675687,0.000791284,0.000807544,0.007399566,-2.26E-05,-9.817468,0,0,28.09799,1,1,1000,1000
15402,55:28.2,IMU,52404863,1,0.000713643,0.00065341,0.000861139,0.008688233,0.001019258,-9.818075,0,0,28.09799,1,1,760,800
15503,55:28.2,IMU,52444847,0,0.000715804,0.000716781,0.000715794,0.001837983,0.00052963,-9.817469,0,0,28.10025,1,1,1000,1000
15504,55:28.2,IMU,52444847,1,0.000765407,0.000636945,0.000804811,0.000907681,-0.001762403,-9.817659,0,0,28.10025,1,1,760,800
15557,55:28.3,IMU,52484831,0,0.000707842,0.000748214,0.000725728,-0.002124226,-0.001641479,-9.817215,0,0,28.1025,1,1,1000,1000
15558,55:28.3,IMU,52484831,1,0.000532371,0.000746561,0.000757813,-0.000173227,-0.001506153,-9.816282,0,0,28.1025,1,1,760,800
15611,55:28.3,IMU,52524815,0,0.000711806,0.000710521,0.000710802,-0.00425658,-0.000826634,-9.818037,0,0,28.10475,1,1,1000,1000
15612,55:28.3,IMU,52524815,1,0.00086809,0.000715956,0.000991389,-0.005466884,0.001173337,-9.815441,0,0,28.10475,1,1,760,800
15714,55:28.4,IMU,52564799,0,0.000727491,0.000764508,0.000715408,-0.005157312,-0.002421706,-9.818068,0,0,28.10701,1,1,1000,1000
15715,55:28.4,IMU,52564799,1,0.000854333,0.000727734,0.000450387,-0.007097999,-0.000809233,-9.817998,0,0,28.10701,1,1,760,800
15768,55:28.4,IMU,52604783,0,0.000704112,0.0007617,0.000759103,-0.0064021,-0.001734727,-9.817361,0,0,28.10926,1,1,1000,1000
15769,55:28.4,IMU,52604783,1,0.000830802,0.000705355,0.000751854,-0.00796767,-0.002625399,-9.818727,0,0,28.10926,1,1,760,800
15867,55:28.4,IMU,52644767,0,0.000751479,0.000739376,0.000656177,-0.007817546,-0.002069481,-9.818027,0,0,28.11151,1,1,1000,1000
15868,55:28.4,IMU,52644767,1,0.000694105,0.000815877,0.000692949,-0.007996296,-0.002248997,-9.816019,0,0,28.11151,1,1,760,800
15919,55:28.5,IMU,52684751,0,0.000713392,0.00075362,0.000717858,-0.00600769,-0.001102741,-9.817068,0,0,28.11376,1,1,1000,1000
15920,55:28.5,IMU,52684751,1,0.000748549,0.000619446,0.00076401,-0.00641202,-0.001658926,-9.816093,0,0,28.11376,1,1,760,800
15971,55:28.5,IMU,52724735,0,0.000714861,0.000755507,0.000683303,-0.004927084,-0.000443199,-9.818229,0,0,28.11601,1,1,1000,1000
15972,55:28.5,IMU,52724735,1,0.000701085,0.000746167,0.000598681,-0.004464465,-0.000764807,-9.817286,0,0,28.11601,1,1,760,800
16071,55:28.6,IMU,52764719,0,0.000788954,0.000724467,0.000770779,-0.003456322,-0.001785604,-9.817608,0,0,28.11827,1,1,1000,1000
16072,55:28.6,IMU,52764719,1,0.000736319,0.000910825,0.000636521,-0.005074715,-0.001632025,-9.817026,0,0,28.11827,1,1,760,800
16126,55:28.6,IMU,52804703,0,0.000759911,0.000743865,0.000759002,-0.002655432,-0.002466841,-9.817461,0,0,28.12052,1,1,1000,1000
16127,55:28.6,IMU,52804703,1,0.000899864,0.000821284,0.000770564,-0.003039474,-0.001663353,-9.816308,0,0,28.12052,1,1,760,800
16224,55:28.6,IMU,52844687,0,0.000696898,0.000711358,0.000690602,-0.001708996,-0.001991496,-9.81723,0,0,28.12277,1,1,1000,1000
16225,55:28.6,IMU,52844687,1,0.000572275,0.000668424,0.000837053,-0.002594088,0.000110479,-9.817683,0,0,28.12277,1,1,760,800
16276,55:28.7,IMU,52884671,0,0.000732041,0.000764492,0.000765027,-0.00202358,-0.000622398,-9.817224,0,0,28.12502,1,1,1000,1000
16277,55:28.7,IMU,52884671,1,0.000776752,0.000520648,0.000817071,8.653076E-06,-0.001265563,-9.81746,0,0,28.12502,1,1,760,800
16329,55:28.7,IMU,52924655,0,0.000776972,0.000729245,0.000707816,-0.001138441,-0.001351565,-9.81699,0,0,28.12727,1,1,1000,1000
16330,55:28.7,IMU,52924655,1,0.000742319,0.000844274,0.0006218,-0.000932531,-0.001498232,-9.81811,0,0,28.12727,1,1,760,800
16429,55:28.8,IMU,52964639,0,0.000765967,0.000735619,0.000785888,8.708925E-05,-0.000837817,-9.818558,0,0,28.12952,1,1,1000,1000
16430,55:28.8,IMU,52964639,1,0.000803752,0.000836896,0.000739748,-0.00011537,-0.001416378,-9.817785,0,0,28.12952,1,1,760,800
16484,55:28.8,IMU,53004623,0,0.000738297,0.000712085,0.000713692,0.000687201,-0.001479595,-10.17277,0,0,28.13177,1,1,1000,1000
16485,55:28.8,IMU,53004623,1,0.000794871,0.000689133,0.000723704,-0.001631046,0.001690156,-10.16719,0,0,28.13177,1,1,760,800
16591,55:28.8,IMU,53044607,0,0.000738265,0.000762319,0.000675369,0.000261385,-0.000743866,-10.50646,0,0,28.13401,1,1,1000,1000
16592,55:28.8,IMU,53044607,1,0.000750158,0.000596481,0.000733188,-0.001938405,-0.000983005,-10.50723,0,0,28.13401,1,1,760,800
16642,55:28.9,IMU,53084591,0,0.000687705,0.000770497,0.000791922,-0.002591878,-0.001186619,-10.36682,0,0,28.13626,1,1,1000,1000
16643,55:28.9,IMU,53084591,1,0.00063651,0.000839365,0.000589014,-0.001537964,-0.000274067,-10.36285,0,0,28.13626,1,1,760,800
16695,55:28.9,IMU,53125408,0,0.000743705,0.000750142,0.00077309,-0.003082785,-0.000115462,-10.37132,0,0,28.13857,1,1,1000,1000
16696,55:28.9,IMU,53125408,1,0.000776935,0.000642039,0.000597945,-0.0014846,-0.000233737,-10.36738,0,0,28.13851,1,1,760,800
16795,55:29.0,IMU,53165392,0,0.000718538,0.000744677,0.00075677,-0.003383141,-0.001593826,-10.40312,0,0,28.14082,1,1,1000,1000
16796,55:29.0,IMU,53165392,1,0.000881015,0.000757312,0.000703431,-0.005353528,-0.001386456,-10.4048,0,0,28.14076,1,1,760,800
16849,55:29.0,IMU,53205376,0,0.000738233,0.00076688,0.000768488,-0.002073925,-0.000508027,-10.38045,0,0,28.14306,1,1,1000,1000
16850,55:29.0,IMU,53205376,1,0.000803996,0.00072703,0.000854038,-0.002727196,-0.002760602,-10.38287,0,0,28.14301,1,1,760,800
16948,55:29.0,IMU,53245360,0,0.00071043,0.00074098,0.000752439,-0.001608873,0.000267939,-10.35265,0,0,28.14531,1,1,1000,1000
16949,55:29.0,IMU,53245360,1,0.000828115,0.000579297,0.000601886,-0.000534188,0.000490508,-10.35561,0,0,28.14525,1,1,760,800
17000,55:29.1,IMU,53285344,0,0.000686371,0.000775306,0.000702453,-0.001533035,-0.001195307,-10.34468,0,0,28.14756,1,1,1000,1000
17001,55:29.1,IMU,53285344,1,0.000822759,0.000631097,0.000653376,0.000307672,-0.001058512,-10.34779,0,0,28.1475,1,1,760,800
17053,55:29.1,IMU,53325328,0,0.000692249,0.000759619,0.00082171,0.00023268,-0.000932469,-10.34383,0,0,28.14981,1,1,1000,1000
17054,55:29.1,IMU,53325328,1,0.000725524,0.000614137,0.000741471,0.000736308,0.000873033,-10.34654,0,0,28.14975,1,1,760,800
17153,55:29.2,IMU,53365312,0,0.000723347,0.000740073,0.000698415,0.00036697,-0.000477404,-10.34655,0,0,28.15205,1,1,1000,1000
17154,55:29.2,IMU,53365312,1,0.000775522,0.00079598,0.000689454,-0.000234567,-0.000501477,-10.35187,0,0,28.15199,1,1,760,800
17208,55:29.2,IMU,53405296,0,0.000729227,0.000757293,0.000730394,0.001832051,-0.00123598,-10.3591,0,0,28.1543,1,1,1000,1000
17209,55:29.2,IMU,53405296,1,0.000578088,0.000579303,0.000665566,8.64942E-05,-0.002458389,-10.36454,0,0,28.15424,1,1,760,800
17309,55:29.2,IMU,53445280,0,0.000721425,0.000759316,0.00073847,0.000655454,-7.32E-05,-10.3756,0,0,28.15654,1,1,1000,1000
17310,55:29.2,IMU,53445280,1,0.000630596,0.000813873,0.000693391,5.010137E-05,3.93721E-05,-10.37684,0,0,28.15649,1,1,760,800
17363,55:29.3,IMU,53485264,0,0.000718129,0.000764019,0.000730191,0.000803146,-0.000228411,-10.3905,0,0,28.15879,1,1,1000,1000
17364,55:29.3,IMU,53485264,1,0.000754049,0.000833179,0.000674748,0.002399027,0.00085358,-10.39469,0,0,28.15873,1,1,760,800
17416,55:29.3,IMU,53525248,0,0.000695674,0.000765141,0.000708489,0.000723009,-0.000617357,-10.40881,0,0,28.16103,1,1,1000,1000
17417,55:29.3,IMU,53525248,1,0.000815878,0.000673527,0.000759499,0.001444723,0.001116128,-10.41035,0,0,28.16098,1,1,760,800
17519,55:29.4,IMU,53565232,0,0.000743535,0.00076327,0.000748177,0.000479599,-0.00041469,-10.42267,0,0,28.16322,1,1,1000,1000
17520,55:29.4,IMU,53565232,1,0.000722917,0.000875777,0.000763431,-0.001606381,-0.001371373,-10.42731,0,0,28.16322,1,1,760,800
17574,55:29.4,IMU,53605216,0,0.000744753,0.000690987,0.00077439,0.00037342,-0.001080354,-10.4406,0,0,28.16547,1,1,1000,1000
17575,55:29.4,IMU,53605216,1,0.000589768,0.000607809,0.000678911,0.001453734,-0.000120572,-10.44089,0,0,28.16547,1,1,760,800
17673,55:29.4,IMU,53645200,0,-0.009308835,-0.008080891,0.000806238,0.00759862,-0.000175229,-11.01471,0,0,28.16771,1,1,1000,1000
17674,55:29.4,IMU,53645200,1,-0.010187,-0.009004512,0.000960262,0.005817043,0.001730433,-11.00655,0,0,28.16771,1,1,760,800
17726,55:29.5,IMU,53685184,0,-0.02820028,-0.02551575,0.00153438,0.05779946,0.006833134,-14.53833,0,0,28.16996,1,1,1000,1000
17727,55:29.5,IMU,53685184,1,-0.02840348,-0.02559324,0.001307546,0.05472089,0.004541376,-14.5275,0,0,28.16996,1,1,760,800
17778,55:29.5,IMU,53725168,0,-0.03487183,-0.02527346,0.002071662,0.09041914,0.0183263,-15.10083,0,0,28.1722,1,1,1000,1000
17779,55:29.5,IMU,53725168,1,-0.03493072,-0.02535779,0.002044753,0.09035008,0.02056923,-15.08834,0,0,28.1722,1,1,760,800
17878,55:29.6,IMU,53765152,0,-0.0329954,-0.01680615,0.002532911,0.1114892,0.03085282,-14.29236,0,0,28.17444,1,1,1000,1000
17879,55:29.6,IMU,53765152,1,-0.0327776,-0.01685528,0.002425476,0.1110931,0.03036041,-14.28603,0,0,28.17444,1,1,760,800
17934,55:29.6,IMU,53805136,0,-0.02894043,-0.006122462,0.002729144,0.12801,0.03968619,-13.12634,0,0,28.17669,1,1,1000,1000
17935,55:29.6,IMU,53805136,1,-0.02880696,-0.006117743,0.002662805,0.1293215,0.03814717,-13.12444,0,0,28.17669,1,1,760,800
18032,55:29.6,IMU,53845120,0,-0.02193367,0.00819591,0.002939192,0.1428041,0.04350879,-11.90824,0,0,28.17893,1,1,1000,1000
18033,55:29.6,IMU,53845120,1,-0.0218923,0.008235962,0.002971324,0.1427077,0.04249534,-11.90749,0,0,28.17893,1,1,760,800
18084,55:29.7,IMU,53885104,0,-0.01619612,0.02005225,0.002987467,0.1558553,0.0407898,-10.84631,0,0,28.18117,1,1,1000,1000
18085,55:29.7,IMU,53885104,1,-0.01611825,0.02009186,0.002926154,0.1534267,0.04244441,-10.85142,0,0,28.18117,1,1,760,800
18137,55:29.7,IMU,53925088,0,-0.009104309,0.02843444,0.002963915,0.1648263,0.03613699,-10.02569,0,0,28.18341,1,1,1000,1000
18138,55:29.7,IMU,53925088,1,-0.008847379,0.02813518,0.002875198,0.1672834,0.03654388,-10.02919,0,0,28.18341,1,1,760,800
18238,55:29.8,IMU,53965072,0,-0.006972787,0.0353088,0.003061263,0.1701043,0.03117225,-9.492188,0,0,28.18566,1,1,1000,1000
18239,55:29.8,IMU,53965072,1,-0.006954136,0.03529482,0.002844076,0.1696796,0.03203513,-9.496762,0,0,28.18566,1,1,760,800
18292,55:29.8,IMU,54005056,0,-0.001565973,0.03942179,0.002983051,0.1727166,0.02216285,-9.221649,0,0,28.18795,1,1,1000,1000
18293,55:29.8,IMU,54005056,1,-0.001536256,0.03935208,0.003131699,0.1708786,0.02562502,-9.221684,0,0,28.18795,1,1,760,800
18394,55:29.8,IMU,54045040,0,0.004718216,0.04387502,0.002951536,0.1720399,0.01940489,-9.182922,0,0,28.1902,1,1,1000,1000
18395,55:29.8,IMU,54045040,1,0.004856459,0.04371024,0.002762862,0.1738773,0.02121744,-9.182121,0,0,28.1902,1,1,760,800
18447,55:29.9,IMU,54085024,0,0.008449929,0.0455456,0.002852999,0.1689456,0.01881673,-9.306627,0,0,28.19244,1,1,1000,1000
18448,55:29.9,IMU,54085024,1,0.00859329,0.04563953,0.002781916,0.1685897,0.01780118,-9.306261,0,0,28.19244,1,1,760,800
18499,55:29.9,IMU,54125008,0,0.01092648,0.04472627,0.002710816,0.16924,0.01791061,-9.527632,0,0,28.19468,1,1,1000,1000
18500,55:29.9,IMU,54125008,1,0.0111078,0.04468023,0.00272661,0.1670642,0.01831426,-9.526115,0,0,28.19468,1,1,760,800
18599,55:30.0,IMU,54164992,0,0.01306693,0.04428637,0.002598478,0.1693156,0.01923241,-9.80296,0,0,28.19686,1,1,1000,1000
18600,55:30.0,IMU,54164992,1,0.01317474,0.04416412,0.002547714,0.1700093,0.01783562,-9.801853,0,0,28.19686,1,1,760,800
18654,55:30.0,IMU,54204976,0,0.01338913,0.04109783,0.002430132,0.1707094,0.02241053,-10.07173,0,0,28.1991,1,1,1000,1000
18655,55:30.0,IMU,54204976,1,0.01353414,0.04106986,0.002456334,0.1703947,0.02307981,-10.06974,0,0,28.1991,1,1,760,800
18753,55:30.0,IMU,54244960,0,0.01414474,0.04060553,0.002294655,0.1767142,0.02299751,-10.31186,0,0,28.20134,1,1,1000,1000
18754,55:30.0,IMU,54244960,1,0.01416232,0.04032578,0.002386701,0.1785665,0.02404979,-10.31245,0,0,28.20134,1,1,760,800
18804,55:30.1,IMU,54284944,0,0.01412571,0.04129521,0.002059298,0.1823698,0.02535205,-10.51176,0,0,28.20358,1,1,1000,1000
18805,55:30.1,IMU,54284944,1,0.01423189,0.04126069,0.002181973,0.1815681,0.02655765,-10.51116,0,0,28.20358,1,1,760,800
18857,55:30.1,IMU,54324928,0,0.01515577,0.03953528,0.002152366,0.1872112,0.02854756,-10.64568,0,0,28.20582,1,1,1000,1000
18858,55:30.1,IMU,54324928,1,0.01503257,0.03965268,0.002257261,0.1893993,0.02867237,-10.64571,0,0,28.20582,1,1,760,800
18957,55:30.2,IMU,54364912,0,0.01149383,0.0339324,0.002049549,0.195765,0.02927042,-10.74566,0,0,28.20806,1,1,1000,1000
18958,55:30.2,IMU,54364912,1,0.0114846,0.03377019,0.002134594,0.1956416,0.02946816,-10.74446,0,0,28.20806,1,1,760,800
19012,55:30.2,IMU,54404896,0,0.01246032,0.03270637,0.001952282,0.2031901,0.03090038,-10.80293,0,0,28.2103,1,1,1000,1000
19013,55:30.2,IMU,54404896,1,0.01253571,0.03271606,0.001733644,0.2046742,0.03018009,-10.80337,0,0,28.2103,1,1,760,800
19114,55:30.2,IMU,54444880,0,0.008232989,0.03542191,0.001848015,0.2098527,0.03316079,-10.81834,0,0,28.21254,1,1,1000,1000
19115,55:30.2,IMU,54444880,1,0.008191081,0.03548443,0.001922703,0.2112903,0.02945559,-10.81761,0,0,28.21254,1,1,760,800
19168,55:30.3,IMU,54484864,0,0.007664248,0.03196233,0.001685549,0.2151069,0.03141464,-10.8385,0,0,28.21478,1,1,1000,1000
19169,55:30.3,IMU,54484864,1,0.00777283,0.03176599,0.001796154,0.2186766,0.03242091,-10.83852,0,0,28.21478,1,1,760,800
19220,55:30.3,IMU,54524848,0,0.008976223,0.03192176,0.001685394,0.2234634,0.03281485,-10.82975,0,0,28.21701,1,1,1000,1000
19221,55:30.3,IMU,54524848,1,0.009005236,0.03193359,0.001738274,0.2222811,0.0327902,-10.82919,0,0,28.21701,1,1,760,800
19323,55:30.4,IMU,54564832,0,0.008166598,0.02886696,0.001608382,0.2291761,0.03457403,-10.80364,0,0,28.21925,1,1,1000,1000
19324,55:30.4,IMU,54564832,1,0.008183943,0.02882327,0.001504596,0.2301164,0.03297182,-10.80482,0,0,28.21925,1,1,760,800
19379,55:30.4,IMU,54604816,0,0.008459485,0.03113552,0.001512691,0.2337749,0.03414223,-10.80048,0,0,28.22149,1,1,1000,1000
19380,55:30.4,IMU,54604816,1,0.008512808,0.03095412,0.00135463,0.2336101,0.03654436,-10.80106,0,0,28.22149,1,1,760,800
19477,55:30.4,IMU,54644800,0,0.007613287,0.0290286,0.001544268,0.2386681,0.034603,-10.79353,0,0,28.22373,1,1,1000,1000
19478,55:30.4,IMU,54644800,1,0.007667682,0.02877714,0.001449486,0.2374327,0.03373041,-10.79042,0,0,28.22373,1,1,760,800
19529,55:30.5,IMU,54684784,0,0.008881302,0.03022373,0.001602991,0.2447594,0.03664328,-10.78805,0,0,28.22596,1,1,1000,1000
19530,55:30.5,IMU,54684784,1,0.008842818,0.03018748,0.001693923,0.2436684,0.03716812,-10.78682,0,0,28.22596,1,1,760,800
19584,55:30.5,IMU,54724768,0,0.007016117,0.02697822,0.001590543,0.2500687,0.03676891,-10.79486,0,0,28.2282,1,1,1000,1000
19585,55:30.5,IMU,54724768,1,0.00693699,0.02710813,0.001515582,0.2491233,0.03591397,-10.79563,0,0,28.2282,1,1,760,800
19683,55:30.6,IMU,54764752,0,0.004552219,0.02412088,0.001509576,0.2544161,0.03579533,-10.80666,0,0,28.23044,1,1,1000,1000
19684,55:30.6,IMU,54764752,1,0.004550724,0.02412126,0.001577655,0.254981,0.03561545,-10.80623,0,0,28.23044,1,1,760,800
19738,55:30.6,IMU,54804736,0,0.004931454,0.02532578,0.00155297,0.2595928,0.03726306,-10.81556,0,0,28.23267,1,1,1000,1000
19739,55:30.6,IMU,54804736,1,0.00492152,0.02515857,0.001430171,0.2589841,0.03841974,-10.81524,0,0,28.23267,1,1,760,800
19837,55:30.6,IMU,54844720,0,0.002198455,0.02300878,0.00152817,0.266438,0.03720993,-10.82801,0,0,28.23491,1,1,1000,1000
19838,55:30.6,IMU,54844720,1,0.002359973,0.02296731,0.001494402,0.2665042,0.03556954,-10.82731,0,0,28.23491,1,1,760,800
19888,55:30.7,IMU,54884704,0,0.005808056,0.02448881,0.001560106,0.2723009,0.03812446,-10.84154,0,0,28.23714,1,1,1000,1000
19889,55:30.7,IMU,54884704,1,0.005685314,0.0243828,0.001539958,0.2738481,0.0384862,-10.8411,0,0,28.23714,1,1,760,800
19941,55:30.7,IMU,54924688,0,0.00275929,0.02266787,0.001526999,0.2788967,0.03871461,-10.84384,0,0,28.23938,1,1,1000,1000
19942,55:30.7,IMU,54924688,1,0.002415647,0.02274467,0.001702831,0.2789321,0.0365454,-10.84188,0,0,28.23938,1,1,760,800
20043,55:30.8,IMU,54964672,0,0.001082055,0.01887723,0.001493034,0.2859016,0.03914407,-10.85206,0,0,28.24161,1,1,1000,1000
20044,55:30.8,IMU,54964672,1,0.001214055,0.01901549,0.001640673,0.2844798,0.04069949,-10.85333,0,0,28.24161,1,1,760,800
20098,55:30.8,IMU,55004656,0,-0.000889365,0.02000981,0.001634962,0.2921979,0.0390624,-10.86909,0,0,28.24384,1,1,1000,1000
20099,55:30.8,IMU,55004656,1,-0.00095536,0.01990426,0.001741678,0.292272,0.03787608,-10.87268,0,0,28.24384,1,1,760,800
20198,55:30.8,IMU,55044640,0,0.000410918,0.01807795,0.001550223,0.2988013,0.04056917,-10.86081,0,0,28.24608,1,1,1000,1000
20199,55:30.8,IMU,55044640,1,0.00034447,0.01804725,0.001525551,0.3004991,0.04018161,-10.85817,0,0,28.24608,1,1,760,800
20251,55:30.9,IMU,55084624,0,0.002323386,0.01920817,0.001747407,0.3068414,0.0397554,-10.87433,0,0,28.24831,1,1,1000,1000
20252,55:30.9,IMU,55084624,1,0.002253835,0.01921426,0.001813264,0.3040434,0.04012191,-10.87514,0,0,28.24831,1,1,760,800
20304,55:30.9,IMU,55124608,0,0.00037109,0.01721234,0.001631678,0.312897,0.03888582,-10.86257,0,0,28.25055,1,1,1000,1000
20305,55:30.9,IMU,55124608,1,0.00031771,0.01741241,0.001530151,0.3140914,0.03973205,-10.86153,0,0,28.25055,1,1,760,800
20404,55:31.0,IMU,55164592,0,-0.001738812,0.01453671,0.00171301,0.3192995,0.039924,-10.87221,0,0,28.25278,1,1,1000,1000
20405,55:31.0,IMU,55164592,1,-0.001942861,0.01454969,0.001712778,0.3203922,0.03936319,-10.87181,0,0,28.25278,1,1,760,800
20458,55:31.0,IMU,55205409,0,-0.002718781,0.01317764,0.001632296,0.3266586,0.04071241,-10.85941,0,0,28.25507,1,1,1000,1000
20459,55:31.0,IMU,55205409,1,-0.002315903,0.01294729,0.001692585,0.3282862,0.03930625,-10.85677,0,0,28.25501,1,1,760,800
20557,55:31.0,IMU,55245393,0,-0.003980848,0.01412663,0.001708615,0.3336877,0.04065662,-10.8676,0,0,28.2573,1,1,1000,1000
20558,55:31.0,IMU,55245393,1,-0.00392047,0.01403807,0.001561479,0.3346955,0.04037637,-10.86765,0,0,28.25724,1,1,760,800
20609,55:31.1,IMU,55285377,0,0.000114932,0.01302484,0.001759737,0.3396423,0.0408257,-10.85362,0,0,28.25953,1,1,1000,1000
20610,55:31.1,IMU,55285377,1,0.000112446,0.01288482,0.001789264,0.3397394,0.04323093,-10.85179,0,0,28.25948,1,1,760,800
20662,55:31.1,IMU,55325361,0,-0.002372031,0.01244905,0.001840368,0.3486423,0.04011188,-10.85729,0,0,28.26176,1,1,1000,1000
20663,55:31.1,IMU,55325361,1,-0.0024883,0.01261406,0.001821245,0.345966,0.04009297,-10.85867,0,0,28.26171,1,1,760,800
20762,55:31.2,IMU,55365345,0,-0.001908057,0.01130242,0.001717501,0.3547674,0.04123011,-10.83412,0,0,28.264,1,1,1000,1000
20763,55:31.2,IMU,55365345,1,-0.001775837,0.01124086,0.001756366,0.3546665,0.04135438,-10.83192,0,0,28.26394,1,1,760,800
20821,55:31.2,IMU,55405329,0,-0.001851529,0.01142988,0.00179446,0.3612776,0.04182214,-10.74331,0,0,28.26623,1,1,1000,1000
20822,55:31.2,IMU,55405329,1,-0.001751673,0.01134052,0.001777092,0.3618858,0.040418,-10.74625,0,0,28.26617,1,1,760,800
20923,55:31.2,IMU,55445313,0,-0.009885238,0.01444059,0.001654999,0.3671459,0.04202582,-10.63366,0,0,28.26846,1,1,1000,1000
20924,55:31.2,IMU,55445313,1,-0.009835783,0.01443892,0.001745051,0.3670832,0.04068164,-10.63494,0,0,28.2684,1,1,760,800
20977,55:31.3,IMU,55485297,0,-0.007720901,0.01683232,0.00163829,0.3717764,0.04072667,-10.53292,0,0,28.27069,1,1,1000,1000
20978,55:31.3,IMU,55485297,1,-0.007769494,0.01684435,0.001754311,0.3743407,0.04104723,-10.53004,0,0,28.27063,1,1,760,800
21030,55:31.3,IMU,55525281,0,-0.005580941,0.01724467,0.001642708,0.3767255,0.04190076,-10.43373,0,0,28.27292,1,1,1000,1000
21031,55:31.3,IMU,55525281,1,-0.005761651,0.01714284,0.001583149,0.3775888,0.04029015,-10.43437,0,0,28.27287,1,1,760,800
21132,55:31.4,IMU,55565265,0,-0.004872488,0.01658516,0.001544986,0.3820762,0.04140193,-10.34618,0,0,28.27515,1,1,1000,1000
21133,55:31.4,IMU,55565265,1,-0.004896822,0.01642792,0.00142328,0.3815432,0.0424889,-10.34666,0,0,28.27509,1,1,760,800
21189,55:31.4,IMU,55605249,0,-0.005237846,0.01549426,0.001454066,0.3883725,0.042835,-10.26371,0,0,28.27738,1,1,1000,1000
21190,55:31.4,IMU,55605249,1,-0.005137322,0.01538953,0.00131088,0.3900232,0.04263901,-10.26501,0,0,28.27732,1,1,760,800
21288,55:31.4,IMU,55645233,0,-0.004771736,0.0153079,0.001420237,0.3941303,0.04224632,-10.1927,0,0,28.27955,1,1,1000,1000
21289,55:31.4,IMU,55645233,1,-0.004704336,0.01553802,0.001457828,0.3918341,0.04089445,-10.19031,0,0,28.27955,1,1,760,800
21339,55:31.5,IMU,55685217,0,-0.002671778,0.01708763,0.001406768,0.3999455,0.04251087,-10.12636,0,0,28.28178,1,1,1000,1000
21340,55:31.5,IMU,55685217,1,-0.00264555,0.01690835,0.001536227,0.3990634,0.04378376,-10.1263,0,0,28.28178,1,1,760,800
21392,55:31.5,IMU,55725201,0,-0.001876292,0.01741826,0.001391596,0.4052117,0.0431523,-10.06315,0,0,28.28401,1,1,1000,1000
21393,55:31.5,IMU,55725201,1,-0.001934531,0.01756551,0.001538504,0.4064731,0.04304046,-10.06371,0,0,28.28401,1,1,760,800
21492,55:31.6,IMU,55765185,0,-0.003811751,0.01908346,0.001458271,0.4106431,0.04257863,-10.01369,0,0,28.28624,1,1,1000,1000
21493,55:31.6,IMU,55765185,1,-0.003711288,0.01890859,0.001342279,0.4113753,0.04487572,-10.01081,0,0,28.28624,1,1,760,800
21546,55:31.6,IMU,55805169,0,-0.00154051,0.01674755,0.001408876,0.4157301,0.04219925,-9.95429,0,0,28.28847,1,1,1000,1000
21547,55:31.6,IMU,55805169,1,-0.001465316,0.01666203,0.001373958,0.4176261,0.0451952,-9.955822,0,0,28.28847,1,1,760,800
21647,55:31.6,IMU,55845153,0,-0.000573566,0.01555832,0.001448369,0.4219729,0.04347019,-9.871189,0,0,28.2907,1,1,1000,1000
21648,55:31.6,IMU,55845153,1,-0.000529637,0.01554227,0.001339313,0.4205917,0.0433834,-9.868988,0,0,28.2907,1,1,760,800
21699,55:31.7,IMU,55885137,0,0.000363327,0.0177024,0.001450542,0.426501,0.04333608,-9.777109,0,0,28.29292,1,1,1000,1000
21700,55:31.7,IMU,55885137,1,0.000430378,0.0176411,0.001386862,0.4266478,0.04450628,-9.77722,0,0,28.29292,1,1,760,800
21751,55:31.7,IMU,55925121,0,0.000847009,0.01795667,0.001446687,0.4313977,0.04521818,-9.694796,0,0,28.29515,1,1,1000,1000
21752,55:31.7,IMU,55925121,1,0.000728952,0.0178601,0.001465392,0.4320051,0.04538363,-9.693529,0,0,28.29515,1,1,760,800
21851,55:31.8,IMU,55965105,0,0.000802169,0.01842225,0.001551825,0.4350251,0.0457643,-9.615404,0,0,28.29738,1,1,1000,1000
21852,55:31.8,IMU,55965105,1,0.000956935,0.01826682,0.001614299,0.4340686,0.04498329,-9.614815,0,0,28.29738,1,1,760,800
21907,55:31.8,IMU,56005089,0,0.000180323,0.01752326,0.001602839,0.4412114,0.04513287,-9.545648,0,0,28.29961,1,1,1000,1000
21908,55:31.8,IMU,56005089,1,0.000339051,0.01750026,0.001591867,0.4408371,0.04659458,-9.545956,0,0,28.29961,1,1,760,800
22007,55:31.8,IMU,56045073,0,0.000451703,0.01801744,0.001615909,0.4458449,0.04610845,-9.484123,0,0,28.30183,1,1,1000,1000
22008,55:31.8,IMU,56045073,1,0.000413903,0.01800612,0.00163074,0.4451612,0.04338709,-9.486619,0,0,28.30183,1,1,760,800
22059,55:31.9,IMU,56085057,0,0.002363659,0.01964953,0.001673508,0.450704,0.04601654,-9.427682,0,0,28.30412,1,1,1000,1000
22060,55:31.9,IMU,56085057,1,0.002424954,0.01948094,0.00164366,0.4516289,0.04766063,-9.425779,0,0,28.30412,1,1,760,800
22113,55:31.9,IMU,56125041,0,0.004106943,0.01928852,0.001700344,0.4552712,0.04726524,-9.380394,0,0,28.30634,1,1,1000,1000
22114,55:31.9,IMU,56125041,1,0.004201639,0.01928057,0.001774289,0.4561367,0.04671716,-9.380274,0,0,28.30634,1,1,760,800
22213,55:32.0,IMU,56165025,0,0.004142942,0.01870405,0.001712753,0.4596879,0.04756949,-9.334665,0,0,28.30857,1,1,1000,1000
22214,55:32.0,IMU,56165025,1,0.004142612,0.01848842,0.001725539,0.460303,0.04678681,-9.334679,0,0,28.30857,1,1,760,800
22267,55:32.0,IMU,56205009,0,0.000100846,0.01989884,0.001773452,0.465394,0.04764719,-9.297422,0,0,28.31079,1,1,1000,1000
22268,55:32.0,IMU,56205009,1,0.000307683,0.01987659,0.001713745,0.4661208,0.04567001,-9.297169,0,0,28.31079,1,1,760,800
22366,55:32.0,IMU,56244993,0,0.002870917,0.01923007,0.001913992,0.4698921,0.04778984,-9.265488,0,0,28.31296,1,1,1000,1000
22367,55:32.0,IMU,56244993,1,0.003009179,0.01943488,0.0016965,0.4671379,0.04583173,-9.263615,0,0,28.31296,1,1,760,800
22417,55:32.1,IMU,56284977,0,0.003479596,0.02058122,0.001820734,0.4747347,0.04662488,-9.235984,0,0,28.31519,1,1,1000,1000
22418,55:32.1,IMU,56284977,1,0.00363071,0.02051371,0.001844234,0.4756011,0.04849344,-9.235241,0,0,28.31519,1,1,760,800
22471,55:32.1,IMU,56324961,0,0.004199253,0.02110402,0.001862487,0.4799029,0.04878694,-9.21843,0,0,28.31741,1,1,1000,1000
22472,55:32.1,IMU,56324961,1,0.004341778,0.02094038,0.001923021,0.481723,0.04672523,-9.217778,0,0,28.31741,1,1,760,800
22571,55:32.2,IMU,56364945,0,0.003657493,0.0191549,0.001912462,0.4856855,0.04735755,-9.200239,0,0,28.31964,1,1,1000,1000
22572,55:32.2,IMU,56364945,1,0.003543403,0.0190973,0.001955331,0.4836639,0.04702741,-9.197629,0,0,28.31964,1,1,760,800
22627,55:32.2,IMU,56404929,0,0.000900027,0.01752152,0.001885018,0.4902022,0.04763713,-9.185475,0,0,28.32186,1,1,1000,1000
22628,55:32.2,IMU,56404929,1,0.001038651,0.01750235,0.001969903,0.4906396,0.04721351,-9.18522,0,0,28.32186,1,1,760,800
22727,55:32.2,IMU,56444913,0,1.6152E-05,0.01895823,0.002033743,0.4947546,0.04840574,-9.166387,0,0,28.32408,1,1,1000,1000
22728,55:32.2,IMU,56444913,1,0.000232005,0.01899429,0.002022328,0.4953675,0.04881242,-9.16839,0,0,28.32408,1,1,760,800
22782,55:32.3,IMU,56484897,0,0.003799141,0.02130269,0.00205895,0.5000533,0.04821665,-9.151581,0,0,28.32631,1,1,1000,1000
22783,55:32.3,IMU,56484897,1,0.003773004,0.0211788,0.002110661,0.5010775,0.04948947,-9.151863,0,0,28.32631,1,1,760,800
22835,55:32.3,IMU,56524881,0,0.003497588,0.01947276,0.001949623,0.5049731,0.04869607,-9.158281,0,0,28.32853,1,1,1000,1000
22836,55:32.3,IMU,56524881,1,0.003435799,0.01946647,0.001906413,0.506349,0.04843871,-9.157671,0,0,28.32853,1,1,760,800
22937,55:32.4,IMU,56564865,0,0.001515727,0.01759268,0.001901385,0.5097947,0.04861648,-9.13759,0,0,28.33075,1,1,1000,1000
22938,55:32.4,IMU,56564865,1,0.001580857,0.01743405,0.001941054,0.5091983,0.04743898,-9.135152,0,0,28.33075,1,1,760,800
22992,55:32.4,IMU,56604849,0,0.001375257,0.01593468,0.001848126,0.5150604,0.04863036,-9.147318,0,0,28.33297,1,1,1000,1000
22993,55:32.4,IMU,56604849,1,0.00130498,0.01589813,0.001756009,0.514522,0.04702172,-9.14613,0,0,28.33297,1,1,760,800
23092,55:32.4,IMU,56644833,0,0.000791322,0.01608523,0.001747007,0.520367,0.04889756,-9.148917,0,0,28.3352,1,1,1000,1000
23093,55:32.4,IMU,56644833,1,0.000755579,0.01618299,0.001806017,0.5223528,0.04799545,-9.147786,0,0,28.3352,1,1,760,800
23144,55:32.5,IMU,56684817,0,0.000412297,0.01654635,0.001502523,0.5264791,0.04891948,-9.141562,0,0,28.33742,1,1,1000,1000
23145,55:32.5,IMU,56684817,1,0.000513815,0.01643058,0.001476411,0.5254219,0.04815953,-9.14188,0,0,28.33742,1,1,760,800
23196,55:32.5,IMU,56724801,0,0.000454963,0.01682445,0.001454819,0.5296916,0.04977274,-9.148304,0,0,28.33964,1,1,1000,1000
23197,55:32.5,IMU,56724801,1,0.000641657,0.01668908,0.001351554,0.5304109,0.04970823,-9.149118,0,0,28.33964,1,1,760,800
23296,55:32.6,IMU,56764785,0,0.000452601,0.01516784,0.001390087,0.5351886,0.04887455,-9.15943,0,0,28.34186,1,1,1000,1000
23297,55:32.6,IMU,56764785,1,0.000374982,0.01503993,0.001421933,0.5348486,0.04819908,-9.160965,0,0,28.34186,1,1,760,800
23351,55:32.6,IMU,56804769,0,0.000175156,0.01533507,0.001191382,0.5394717,0.0502243,-9.154043,0,0,28.34408,1,1,1000,1000
23352,55:32.6,IMU,56804769,1,0.000126428,0.0152093,0.001118685,0.5388876,0.04966249,-9.154179,0,0,28.34408,1,1,760,800
23449,55:32.6,IMU,56844753,0,-0.002134448,0.01581891,0.000848689,0.5458841,0.05012728,-9.153606,0,0,28.3463,1,1,1000,1000
23450,55:32.6,IMU,56844753,1,-0.002176341,0.01599859,0.000806443,0.544629,0.04944436,-9.154517,0,0,28.3463,1,1,760,800
23502,55:32.7,IMU,56884737,0,-0.001808951,0.01716561,0.000536235,0.5499952,0.04971091,-9.164704,0,0,28.34852,1,1,1000,1000
23503,55:32.7,IMU,56884737,1,-0.001809946,0.0169557,0.000554572,0.5483673,0.05064887,-9.163364,0,0,28.34852,1,1,760,800
23554,55:32.7,IMU,56924721,0,-0.001434224,0.01662567,0.000296969,0.5543905,0.05059499,-9.174534,0,0,28.35074,1,1,1000,1000
23555,55:32.7,IMU,56924721,1,-0.001428063,0.01653848,0.000407728,0.5542039,0.0482982,-9.175066,0,0,28.35074,1,1,760,800
23654,55:32.8,IMU,56964705,0,-0.001322645,0.01423578,0.000338194,0.5598893,0.0510238,-9.179685,0,0,28.35296,1,1,1000,1000
23655,55:32.8,IMU,56964705,1,-0.001496112,0.01433798,0.000305232,0.559683,0.05025288,-9.181703,0,0,28.35296,1,1,760,800
23709,55:32.8,IMU,57004689,0,-0.001135641,0.01299822,0.000388839,0.5644272,0.05079988,-9.190617,0,0,28.35518,1,1,1000,1000
23710,55:32.8,IMU,57004689,1,-0.000977154,0.01295838,0.000270291,0.5673382,0.05146987,-9.189922,0,0,28.35518,1,1,760,800
23810,55:32.8,IMU,57044673,0,-0.000871659,0.01182091,0.000380179,0.5692155,0.05100805,-9.200817,0,0,28.3574,1,1,1000,1000
23811,55:32.8,IMU,57044673,1,-0.000848549,0.0118374,0.000376047,0.5678611,0.05116475,-9.199254,0,0,28.3574,1,1,760,800
23862,55:32.9,IMU,57084657,0,-0.000728929,0.01073319,0.000420191,0.5735304,0.05064856,-9.209982,0,0,28.35962,1,1,1000,1000
23863,55:32.9,IMU,57084657,1,-0.000681249,0.01067349,0.000284712,0.5746534,0.04967137,-9.209697,0,0,28.35962,1,1,760,800
23915,55:32.9,IMU,57124641,0,-0.00302891,0.01350937,0.000379359,0.5789785,0.05022624,-9.212036,0,0,28.36184,1,1,1000,1000
23916,55:32.9,IMU,57124641,1,-0.003061676,0.01349826,0.000622277,0.5773721,0.04813838,-9.21301,0,0,28.36184,1,1,760,800
24015,55:33.0,IMU,57164625,0,-0.004704763,0.01351081,9.697076E-05,0.5830023,0.05108013,-9.217179,0,0,28.36406,1,1,1000,1000
24016,55:33.0,IMU,57164625,1,-0.004670958,0.0134952,4.701874E-05,0.5817401,0.051721,-9.218105,0,0,28.36406,1,1,760,800
24070,55:33.0,IMU,57204609,0,-0.005215358,0.01367953,-0.000215543,0.589218,0.05072584,-9.226393,0,0,28.36628,1,1,1000,1000
24071,55:33.0,IMU,57204609,1,-0.005176457,0.01352863,-0.000135436,0.587752,0.05099473,-9.225309,0,0,28.36628,1,1,760,800
24169,55:33.0,IMU,57244593,0,-0.00485415,0.01500598,-0.000528327,0.5931872,0.05145607,-9.225861,0,0,28.36849,1,1,1000,1000
24170,55:33.0,IMU,57244593,1,-0.005083992,0.01487288,-0.00051561,0.5933404,0.05226313,-9.224794,0,0,28.36849,1,1,760,800
24220,55:33.1,IMU,57284577,0,-0.002511346,0.01594003,-0.000579216,0.5965054,0.0507668,-9.230341,0,0,28.37071,1,1,1000,1000
24221,55:33.1,IMU,57284577,1,-0.002638886,0.01584483,-0.000431977,0.598321,0.05034077,-9.227869,0,0,28.37071,1,1,760,800
24274,55:33.1,IMU,57325394,0,-0.002277224,0.01604043,-0.000735447,0.6014267,0.05134621,-9.23913,0,0,28.37298,1,1,1000,1000
24275,55:33.1,IMU,57325394,1,-0.002275015,0.01619431,-0.000844033,0.6017348,0.05281268,-9.240956,0,0,28.37293,1,1,760,800
24374,55:33.2,IMU,57365378,0,-0.00195198,0.01458314,-0.00092615,0.6047783,0.05140983,-9.245945,0,0,28.3752,1,1,1000,1000
24375,55:33.2,IMU,57365378,1,-0.00189257,0.01443605,-0.000931312,0.6058871,0.05126666,-9.246248,0,0,28.37514,1,1,760,800
24429,55:33.2,IMU,57405362,0,-0.001682864,0.01055079,-0.000865068,0.6106305,0.0515333,-9.248764,0,0,28.37742,1,1,1000,1000
24430,55:33.2,IMU,57405362,1,-0.001791914,0.01053519,-0.00078741,0.6084647,0.05023304,-9.250242,0,0,28.37736,1,1,760,800
24530,55:33.2,IMU,57445346,0,-0.001519414,0.009735002,-0.000692584,0.6147445,0.05130125,-9.258535,0,0,28.37963,1,1,1000,1000
24531,55:33.2,IMU,57445346,1,-0.001386931,0.009681167,-0.000676896,0.6139653,0.04913329,-9.259055,0,0,28.37958,1,1,760,800
24585,55:33.3,IMU,57485330,0,-0.001258334,0.008879151,-0.000591336,0.6183838,0.05172516,-9.266825,0,0,28.38185,1,1,1000,1000
24586,55:33.3,IMU,57485330,1,-0.00127126,0.008830075,-0.000626783,0.6185287,0.05212118,-9.266197,0,0,28.38179,1,1,760,800
24638,55:33.3,IMU,57525314,0,-0.003688402,0.008991502,-0.000585198,0.6231519,0.05269402,-9.2703,0,0,28.38406,1,1,1000,1000
24639,55:33.3,IMU,57525314,1,-0.003565695,0.008707629,-0.000616163,0.6235709,0.05213494,-9.269905,0,0,28.38401,1,1,760,800
24740,55:33.4,IMU,57565298,0,-0.007705207,0.01125321,-0.000570947,0.6274932,0.05046397,-9.272621,0,0,28.38628,1,1,1000,1000
24741,55:33.4,IMU,57565298,1,-0.007596009,0.01107172,-0.000600691,0.6273767,0.05345615,-9.272208,0,0,28.38622,1,1,760,800
24795,55:33.4,IMU,57605282,0,-0.008632999,0.01188677,-0.000523415,0.6313204,0.05240439,-9.274273,0,0,28.38849,1,1,1000,1000
24796,55:33.4,IMU,57605282,1,-0.008581916,0.01186474,-0.000540918,0.6300336,0.05114488,-9.273062,0,0,28.38844,1,1,760,800
24895,55:33.4,IMU,57645266,0,-0.009248514,0.01170789,-0.000512082,0.6340171,0.05291332,-9.2754,0,0,28.39071,1,1,1000,1000
24896,55:33.4,IMU,57645266,1,-0.009445013,0.01179857,-0.000365398,0.6380829,0.052055,-9.275919,0,0,28.39065,1,1,760,800
24946,55:33.5,IMU,57685250,0,-0.005450214,0.0105859,-0.000447958,0.6395597,0.05203628,-9.277812,0,0,28.39292,1,1,1000,1000
24947,55:33.5,IMU,57685250,1,-0.005303977,0.01029581,-0.000474713,0.6408467,0.05394603,-9.274899,0,0,28.39287,1,1,760,800
24999,55:33.5,IMU,57725234,0,-0.005003591,0.01178757,-0.000467175,0.641632,0.05244017,-9.279438,0,0,28.39514,1,1,1000,1000
25000,55:33.5,IMU,57725234,1,-0.00504719,0.01169088,-0.000421729,0.6420685,0.05280902,-9.281709,0,0,28.39508,1,1,760,800
25099,55:33.6,IMU,57765218,0,-0.004454706,0.01073086,-0.00038231,0.6469119,0.05486724,-9.287539,0,0,28.39729,1,1,1000,1000
25100,55:33.6,IMU,57765218,1,-0.004405433,0.01070218,-0.000242055,0.6476184,0.05115932,-9.286435,0,0,28.39729,1,1,760,800
25153,55:33.6,IMU,57805202,0,-0.004326785,0.009776437,-0.000227441,0.6500401,0.05403372,-9.293707,0,0,28.39951,1,1,1000,1000
25154,55:33.6,IMU,57805202,1,-0.004208026,0.009795103,-0.000297279,0.6491581,0.05202878,-9.294224,0,0,28.39951,1,1,760,800
25252,55:33.6,IMU,57845186,0,-0.004196529,0.008845154,-0.000347469,0.6543558,0.05485321,-9.293453,0,0,28.40172,1,1,1000,1000
25253,55:33.6,IMU,57845186,1,-0.004091514,0.008694721,-0.000248507,0.655435,0.05459435,-9.294578,0,0,28.40172,1,1,760,800
25304,55:33.7,IMU,57885170,0,-0.006645207,0.007171652,-0.000535028,0.6581717,0.05360909,-9.282715,0,0,28.40393,1,1,1000,1000
25305,55:33.7,IMU,57885170,1,-0.006703708,0.007187605,-0.000460911,0.6591647,0.05508253,-9.284662,0,0,28.40393,1,1,760,800
25356,55:33.7,IMU,57925154,0,-0.005831781,0.007431314,-0.000681233,0.6605422,0.05382448,-9.29215,0,0,28.40615,1,1,1000,1000
25357,55:33.7,IMU,57925154,1,-0.005692722,0.00718265,-0.000579264,0.6601545,0.05276283,-9.292745,0,0,28.40615,1,1,760,800
25456,55:33.8,IMU,57965138,0,-0.005194481,0.004310756,-0.000623535,0.6643061,0.05591609,-9.293865,0,0,28.40836,1,1,1000,1000
25457,55:33.8,IMU,57965138,1,-0.005322764,0.004074174,-0.00067115,0.6660765,0.05400158,-9.294033,0,0,28.40836,1,1,760,800
25512,55:33.8,IMU,58005122,0,-0.00465375,0.004041847,-0.000482,0.6691953,0.05425677,-9.299841,0,0,28.41057,1,1,1000,1000
25513,55:33.8,IMU,58005122,1,-0.004497049,0.004089456,-0.000447329,0.6703244,0.0560842,-9.300556,0,0,28.41057,1,1,760,800
25612,55:33.8,IMU,58045106,0,-0.004538689,0.006433291,-0.000667913,0.6719003,0.05565242,-9.286379,0,0,28.41278,1,1,1000,1000
25613,55:33.8,IMU,58045106,1,-0.004497207,0.006443498,-0.000646288,0.6721449,0.05396044,-9.288298,0,0,28.41278,1,1,760,800
25664,55:33.9,IMU,58085090,0,-0.002810946,0.007247056,-0.000754956,0.6746855,0.05720817,-9.286173,0,0,28.415,1,1,1000,1000
25665,55:33.9,IMU,58085090,1,-0.002799797,0.007118103,-0.000711388,0.6743146,0.05722262,-9.285769,0,0,28.415,1,1,760,800
25717,55:33.9,IMU,58125074,0,-0.002533564,0.004586136,-0.000638363,0.6789082,0.05629826,-9.288654,0,0,28.41721,1,1,1000,1000
25718,55:33.9,IMU,58125074,1,-0.002553797,0.004693398,-0.000635837,0.6804455,0.05547475,-9.290154,0,0,28.41721,1,1,760,800
25817,55:34.0,IMU,58165058,0,-0.002239629,0.004321838,-0.000577267,0.6826489,0.05769517,-9.296474,0,0,28.41947,1,1,1000,1000
25818,55:34.0,IMU,58165058,1,-0.002081193,0.004274157,-0.000393597,0.6829022,0.0540983,-9.294833,0,0,28.41947,1,1,760,800
25872,55:34.0,IMU,58205042,0,-0.000622222,0.006215749,-0.000570473,0.6849982,0.05876107,-9.282155,0,0,28.42168,1,1,1000,1000
25873,55:34.0,IMU,58205042,1,-0.000676722,0.005976952,-0.000560736,0.6855235,0.05940948,-9.281318,0,0,28.42168,1,1,760,800
25971,55:34.0,IMU,58245026,0,-0.000895779,0.005731583,-0.000624852,0.6874834,0.05718388,-9.281094,0,0,28.42389,1,1,1000,1000
25972,55:34.0,IMU,58245026,1,-0.000903181,0.00588055,-0.000383495,0.6895732,0.05963573,-9.282544,0,0,28.42389,1,1,760,800
26023,55:34.1,IMU,58285010,0,-0.000695517,0.005976027,-0.000572515,0.691395,0.05930127,-9.28661,0,0,28.4261,1,1,1000,1000
26024,55:34.1,IMU,58285010,1,-0.000628715,0.006029264,-0.00060777,0.6918248,0.05901702,-9.286231,0,0,28.4261,1,1,760,800
26075,55:34.1,IMU,58324994,0,-0.000713276,0.005516242,-0.000427746,0.6947132,0.05909733,-9.29189,0,0,28.42826,1,1,1000,1000
26076,55:34.1,IMU,58324994,1,-0.000625655,0.005245431,-0.000465678,0.6956813,0.05705282,-9.291904,0,0,28.42826,1,1,760,800
26175,55:34.2,IMU,58364978,0,-0.000640927,0.005831535,-0.000622517,0.6968725,0.05968862,-9.27164,0,0,28.43047,1,1,1000,1000
26176,55:34.2,IMU,58364978,1,-0.000688259,0.005773531,-0.000796347,0.6967008,0.05722025,-9.272423,0,0,28.43047,1,1,760,800
26231,55:34.2,IMU,58404962,0,-0.000188895,0.005483123,-0.000507448,0.6998115,0.05931941,-9.27471,0,0,28.43268,1,1,1000,1000
26232,55:34.2,IMU,58404962,1,-0.000220558,0.00536979,-0.000572293,0.6989256,0.05949471,-9.275061,0,0,28.43268,1,1,760,800
26332,55:34.2,IMU,58444946,0,-0.000214644,0.005065576,-0.000440797,0.7037532,0.06016418,-9.281863,0,0,28.43489,1,1,1000,1000
26333,55:34.2,IMU,58444946,1,-0.000140922,0.005005797,-0.000416988,0.7045339,0.05911674,-9.283702,0,0,28.43489,1,1,760,800
26386,55:34.3,IMU,58484930,0,-0.002308784,0.004763419,-0.000421978,0.7072208,0.06051522,-9.28455,0,0,28.4371,1,1,1000,1000
26387,55:34.3,IMU,58484930,1,-0.002209972,0.004819637,-0.000384434,0.7052405,0.06055996,-9.284459,0,0,28.4371,1,1,760,800
26439,55:34.3,IMU,58524914,0,-0.002398146,0.005351062,-0.000574581,0.7089231,0.06138696,-9.270475,0,0,28.4393,1,1,1000,1000
26440,55:34.3,IMU,58524914,1,-0.002183262,0.00547205,-0.000238998,0.7083497,0.06247398,-9.270702,0,0,28.4393,1,1,760,800
26541,55:34.4,IMU,58564898,0,-0.002355784,0.00768938,-0.000603858,0.7102304,0.06151472,-9.271352,0,0,28.44151,1,1,1000,1000
26542,55:34.4,IMU,58564898,1,-0.00227903,0.007684649,-0.000492782,0.7093586,0.06379296,-9.272662,0,0,28.44151,1,1,760,800
26597,55:34.4,IMU,58604882,0,-0.002098375,0.006895919,-0.000533815,0.7148684,0.0620345,-9.278579,0,0,28.44372,1,1,1000,1000
26598,55:34.4,IMU,58604882,1,-0.002128911,0.006988424,-0.000395246,0.7164493,0.06251901,-9.2785,0,0,28.44372,1,1,760,800
26695,55:34.4,IMU,58644866,0,-0.000826135,0.006000765,-0.000706898,0.7163568,0.06304628,-9.266404,0,0,28.44593,1,1,1000,1000
26696,55:34.4,IMU,58644866,1,-0.000800106,0.006039761,-0.000674946,0.7172232,0.06194597,-9.264563,0,0,28.44593,1,1,760,800
26748,55:34.5,IMU,58684850,0,-0.00077411,0.005309459,-0.000883598,0.7177155,0.06218126,-9.262229,0,0,28.44813,1,1,1000,1000
26749,55:34.5,IMU,58684850,1,-0.000699374,0.005231818,-0.00082914,0.7206784,0.06184606,-9.261507,0,0,28.44813,1,1,760,800
26803,55:34.5,IMU,58724834,0,-0.00058987,0.007250011,-0.000802367,0.7208546,0.06391863,-9.266867,0,0,28.45034,1,1,1000,1000
26804,55:34.5,IMU,58724834,1,-0.000610993,0.00731065,-0.000802558,0.7213526,0.06468479,-9.268188,0,0,28.45034,1,1,760,800
26902,55:34.6,IMU,58764818,0,-0.000244719,0.006596225,-0.000644031,0.7248199,0.06358907,-9.272067,0,0,28.45255,1,1,1000,1000
26903,55:34.6,IMU,58764818,1,-0.000115959,0.006600343,-0.000817817,0.7262437,0.06315269,-9.272495,0,0,28.45255,1,1,760,800
26958,55:34.6,IMU,58804802,0,0.000499827,0.006037689,-0.000887911,0.7256808,0.06361306,-9.255382,0,0,28.45475,1,1,1000,1000
26959,55:34.6,IMU,58804802,1,0.000452589,0.006154945,-0.000858724,0.7264893,0.06647816,-9.255161,0,0,28.45475,1,1,760,800
27057,55:34.6,IMU,58844786,0,0.000512782,0.006359589,-0.000964555,0.7281095,0.06396353,-9.258022,0,0,28.45696,1,1,1000,1000
27058,55:34.6,IMU,58844786,1,0.000533115,0.006361691,-0.001103776,0.7272913,0.06247277,-9.258461,0,0,28.45696,1,1,760,800
27109,55:34.7,IMU,58884770,0,0.000470255,0.006221941,-0.00082248,0.7300619,0.06602065,-9.263342,0,0,28.45916,1,1,1000,1000
27110,55:34.7,IMU,58884770,1,0.000566272,0.006216588,-0.000908645,0.731915,0.06829954,-9.263147,0,0,28.45916,1,1,760,800
27161,55:34.7,IMU,58924754,0,0.001491346,0.005295163,-0.000896946,0.7325747,0.06498612,-9.247903,0,0,28.46137,1,1,1000,1000
27162,55:34.7,IMU,58924754,1,0.001417928,0.005293131,-0.000762621,0.7331974,0.06180053,-9.249525,0,0,28.46137,1,1,760,800
27261,55:34.8,IMU,58964738,0,0.001381599,0.005357824,-0.000814359,0.7333221,0.06589562,-9.243807,0,0,28.46357,1,1,1000,1000
27262,55:34.8,IMU,58964738,1,0.001565202,0.005350677,-0.00094911,0.7345441,0.06648524,-9.242606,0,0,28.46357,1,1,760,800
27318,55:34.8,IMU,59004722,0,0.001393482,0.004992854,-0.000752373,0.7364582,0.06820009,-9.252483,0,0,28.46578,1,1,1000,1000
27319,55:34.8,IMU,59004722,1,0.001240199,0.005011489,-0.000564062,0.7367575,0.0657572,-9.253265,0,0,28.46578,1,1,760,800
27418,55:34.8,IMU,59044706,0,0.001212651,0.004615879,-0.00064153,0.738187,0.06773639,-9.257168,0,0,28.46798,1,1,1000,1000
27419,55:34.8,IMU,59044706,1,0.001309203,0.004557378,-0.000534638,0.7355071,0.06907374,-9.257311,0,0,28.46798,1,1,760,800
27470,55:34.9,IMU,59084690,0,0.000356199,0.005162642,-0.000673342,0.7407106,0.0672484,-9.232333,0,0,28.47019,1,1,1000,1000
27471,55:34.9,IMU,59084690,1,0.000307699,0.005373877,-0.000871659,0.7382124,0.06696644,-9.233049,0,0,28.47019,1,1,760,800
27523,55:34.9,IMU,59124674,0,0.000420796,0.00482751,-0.000644356,0.7422308,0.06768673,-9.240832,0,0,28.47239,1,1,1000,1000
27524,55:34.9,IMU,59124674,1,0.000489261,0.004681578,-0.000669557,0.7448055,0.06883699,-9.243237,0,0,28.47239,1,1,760,800
27622,55:35.0,IMU,59164658,0,0.000581375,0.004481294,-0.000501668,0.744795,0.06855763,-9.246437,0,0,28.47459,1,1,1000,1000
27623,55:35.0,IMU,59164658,1,0.000577936,0.004323147,-0.000499984,0.7450792,0.06893043,-9.246156,0,0,28.47459,1,1,760,800
27678,55:35.0,IMU,59204642,0,0.000582794,0.002754944,-0.000681548,0.7457246,0.06940799,-9.227447,0,0,28.4768,1,1,1000,1000
27679,55:35.0,IMU,59204642,1,0.000650699,0.002811159,-0.000701633,0.7477989,0.06935443,-9.226653,0,0,28.4768,1,1,760,800
27777,55:35.0,IMU,59244626,0,0.000451603,0.00218544,-0.000538219,0.7474476,0.07050632,-9.229608,0,0,28.479,1,1,1000,1000
27778,55:35.0,IMU,59244626,1,0.000512985,0.002104513,-0.000657808,0.7475374,0.07307246,-9.227855,0,0,28.479,1,1,760,800
27828,55:35.1,IMU,59284610,0,0.00071569,0.002078785,-0.000410267,0.7492412,0.07008012,-9.234192,0,0,28.4812,1,1,1000,1000
27829,55:35.1,IMU,59284610,1,0.000677522,0.002135198,-0.000393113,0.747985,0.07069676,-9.23364,0,0,28.4812,1,1,760,800
27881,55:35.1,IMU,59324594,0,0.001403158,0.004173859,-0.000552308,0.7517459,0.07062723,-9.218571,0,0,28.48341,1,1,1000,1000
27882,55:35.1,IMU,59324594,1,0.001460927,0.004225968,-0.000608674,0.7512899,0.07162806,-9.21982,0,0,28.48341,1,1,760,800
27981,55:35.2,IMU,59364578,0,0.001248581,0.007270275,-0.000606915,0.7530878,0.07173865,-9.218418,0,0,28.48561,1,1,1000,1000
27982,55:35.2,IMU,59364578,1,0.001178301,0.007218583,-0.000642547,0.7528542,0.06890006,-9.217203,0,0,28.48561,1,1,760,800
28036,55:35.2,IMU,59405395,0,0.002403568,0.006563202,-0.000516947,0.7548555,0.07051327,-9.219489,0,0,28.48787,1,1,1000,1000
28037,55:35.2,IMU,59405395,1,0.00205322,0.00667479,-0.000518188,0.7539713,0.06958394,-9.220683,0,0,28.48781,1,1,760,800
28137,55:35.2,IMU,59445379,0,0.001563427,0.005659967,-0.000605584,0.7561973,0.07063694,-9.207187,0,0,28.49006,1,1,1000,1000
28138,55:35.2,IMU,59445379,1,0.001600827,0.005494257,-0.000783817,0.7579847,0.07412035,-9.207411,0,0,28.49001,1,1,760,800
28191,55:35.3,IMU,59485363,0,0.001853929,0.004689612,-0.000644676,0.758449,0.07228564,-9.207363,0,0,28.49227,1,1,1000,1000
28192,55:35.3,IMU,59485363,1,0.001991382,0.00481866,-0.000619204,0.7559205,0.07317887,-9.206261,0,0,28.49221,1,1,760,800
28244,55:35.3,IMU,59525347,0,0.003937847,0.004462183,-0.000544507,0.7593231,0.07061091,-9.207018,0,0,28.49447,1,1,1000,1000
28245,55:35.3,IMU,59525347,1,0.003830283,0.004420374,-0.00068156,0.7598998,0.07128029,-9.207298,0,0,28.49441,1,1,760,800
28346,55:35.4,IMU,59565331,0,0.001433574,0.004438827,-0.00063464,0.7605737,0.07252853,-9.188358,0,0,28.49667,1,1,1000,1000
28347,55:35.4,IMU,59565331,1,0.00148405,0.004417446,-0.000637523,0.759437,0.07456203,-9.187648,0,0,28.49661,1,1,760,800
28402,55:35.4,IMU,59605315,0,0.001508385,0.003774858,-0.000568184,0.7605249,0.07260765,-9.19522,0,0,28.49887,1,1,1000,1000
28403,55:35.4,IMU,59605315,1,0.001480673,0.00385024,-0.000653327,0.7628052,0.07191709,-9.195097,0,0,28.49881,1,1,760,800
28500,55:35.4,IMU,59645299,0,0.003589996,0.005259227,-0.00050493,0.7614608,0.07349455,-9.181643,0,0,28.50107,1,1,1000,1000
28501,55:35.4,IMU,59645299,1,0.003749468,0.005127142,-0.000346187,0.761023,0.07609642,-9.181919,0,0,28.50101,1,1,760,800
28553,55:35.5,IMU,59685283,0,0.002101011,0.005008828,-0.000497494,0.7636566,0.07331245,-9.176161,0,0,28.50327,1,1,1000,1000
28554,55:35.5,IMU,59685283,1,0.002334624,0.004924397,-0.000384586,0.7644128,0.07228094,-9.174832,0,0,28.50321,1,1,760,800
28606,55:35.5,IMU,59725267,0,0.001690174,0.004715845,-0.000380996,0.7648837,0.07285079,-9.173228,0,0,28.50547,1,1,1000,1000
28607,55:35.5,IMU,59725267,1,0.00177212,0.004551843,-0.000366619,0.7648464,0.07468531,-9.175102,0,0,28.50541,1,1,760,800
28705,55:35.6,IMU,59765251,0,0.001891366,0.005316267,-0.000488129,0.7659621,0.07304133,-9.159149,0,0,28.50767,1,1,1000,1000
28706,55:35.6,IMU,59765251,1,0.00181952,0.005176558,-0.00058329,0.7637107,0.07384431,-9.158172,0,0,28.50761,1,1,760,800
28760,55:35.6,IMU,59805235,0,0.003130807,0.00423573,-0.000455917,0.7660723,0.07483257,-9.152232,0,0,28.50987,1,1,1000,1000
28761,55:35.6,IMU,59805235,1,0.003182823,0.004328022,-0.000484519,0.7682924,0.07488732,-9.153898,0,0,28.50981,1,1,760,800
28859,55:35.6,IMU,59845219,0,0.003459808,0.002751278,-0.000499539,0.7667684,0.07423383,-9.139032,0,0,28.51201,1,1,1000,1000
28860,55:35.6,IMU,59845219,1,0.003602316,0.002781494,-0.00056086,0.7677559,0.07045156,-9.140832,0,0,28.51201,1,1,760,800
28911,55:35.7,IMU,59885203,0,0.00221457,0.006732979,-0.00047051,0.7682856,0.07517345,-9.117962,0,0,28.51421,1,1,1000,1000
28912,55:35.7,IMU,59885203,1,0.002247992,0.0067275,-0.00039345,0.7659728,0.07382148,-9.119597,0,0,28.51421,1,1,760,800
28963,55:35.7,IMU,59925187,0,-0.00109821,0.005807145,-0.000534884,0.7682066,0.07391553,-9.097654,0,0,28.51641,1,1,1000,1000
28964,55:35.7,IMU,59925187,1,-0.001082,0.005870461,-0.000516994,0.7685884,0.0733974,-9.097725,0,0,28.51641,1,1,760,800
29063,55:35.8,IMU,59965171,0,0.001376894,0.005411631,-0.000537526,0.7691776,0.07377969,-9.087621,0,0,28.5186,1,1,1000,1000
29064,55:35.8,IMU,59965171,1,0.001495218,0.005267323,-0.000596714,0.7687521,0.07758167,-9.085778,0,0,28.5186,1,1,760,800
29118,55:35.8,IMU,60005155,0,-0.000200796,0.005035755,-0.000552287,0.7711382,0.07557248,-9.074041,0,0,28.5208,1,1,1000,1000
29119,55:35.8,IMU,60005155,1,-8.77E-05,0.005095479,-0.000557036,0.772134,0.07425508,-9.072539,0,0,28.5208,1,1,760,800
29219,55:35.8,IMU,60045139,0,0.001452539,0.004732577,-0.000469457,0.7709447,0.07466047,-9.080078,0,0,28.523,1,1,1000,1000
29220,55:35.8,IMU,60045139,1,0.001552921,0.004639623,-0.000449196,0.768873,0.07536148,-9.082315,0,0,28.523,1,1,760,800
29271,55:35.9,IMU,60085123,0,0.00111466,0.004444277,-0.000627221,0.7725074,0.07421329,-9.081564,0,0,28.5252,1,1,1000,1000
29272,55:35.9,IMU,60085123,1,0.001047342,0.004401733,-0.000746034,0.7720799,0.07342196,-9.082158,0,0,28.5252,1,1,760,800
29324,55:35.9,IMU,60125107,0,0.001950725,0.004121694,-0.000751853,0.772976,0.07598394,-9.096288,0,0,28.52739,1,1,1000,1000
29325,55:35.9,IMU,60125107,1,0.001796306,0.004032703,-0.000807947,0.7718305,0.07637279,-9.09388,0,0,28.52739,1,1,760,800
29423,55:36.0,IMU,60165091,0,0.002296932,0.004782654,-0.000607353,0.7747337,0.07497815,-9.114771,0,0,28.52959,1,1,1000,1000
29424,55:36.0,IMU,60165091,1,0.002456644,0.004852586,-0.00046394,0.7742941,0.07537369,-9.116904,0,0,28.52959,1,1,760,800
29479,55:36.0,IMU,60205075,0,0.002097864,0.004439652,-0.000546893,0.7767473,0.07525919,-9.145155,0,0,28.53178,1,1,1000,1000
29480,55:36.0,IMU,60205075,1,0.002408756,0.004490197,-0.00064755,0.7769817,0.07558897,-9.146582,0,0,28.53178,1,1,760,800
29578,55:36.0,IMU,60245059,0,0.004910644,0.00323071,-0.000321967,0.7792819,0.07653495,-9.185978,0,0,28.53403,1,1,1000,1000
29579,55:36.0,IMU,60245059,1,0.00488801,0.003167021,-0.000400498,0.7808151,0.07738351,-9.184072,0,0,28.53403,1,1,760,800
29629,55:36.1,IMU,60285043,0,0.002359777,0.003111617,-0.000326509,0.7807351,0.07576504,-9.223198,0,0,28.53623,1,1,1000,1000
29630,55:36.1,IMU,60285043,1,0.002518484,0.002990525,-0.000484345,0.7809436,0.07836489,-9.224096,0,0,28.53623,1,1,760,800
29682,55:36.1,IMU,60325027,0,0.004357251,0.002889623,-0.000225125,0.7824468,0.07826823,-9.263274,0,0,28.53842,1,1,1000,1000
29683,55:36.1,IMU,60325027,1,0.004456763,0.00288103,-0.000323092,0.7805777,0.07451645,-9.258935,0,0,28.53842,1,1,760,800
29782,55:36.2,IMU,60365011,0,0.002461983,0.00185237,-0.000295095,0.7844983,0.0771912,-9.305801,0,0,28.54062,1,1,1000,1000
29783,55:36.2,IMU,60365011,1,0.002534144,0.001816049,-0.000234533,0.7856925,0.0777837,-9.307258,0,0,28.54062,1,1,760,800
29837,55:36.2,IMU,60404995,0,0.002050357,0.000546958,-0.000230973,0.7876788,0.07812271,-9.355321,0,0,28.54276,1,1,1000,1000
29838,55:36.2,IMU,60404995,1,0.002130704,0.000538063,-0.000261772,0.7885307,0.07830851,-9.356211,0,0,28.54276,1,1,760,800
29938,55:36.2,IMU,60444979,0,0.004434033,0.002608303,-0.000187973,0.7889225,0.07734575,-9.405089,0,0,28.54495,1,1,1000,1000
29939,55:36.2,IMU,60444979,1,0.004607708,0.002537443,-0.000121464,0.7918682,0.07430318,-9.406462,0,0,28.54495,1,1,760,800
29996,55:36.3,IMU,60484963,0,0.000799055,-0.001785339,-0.000120441,0.7913063,0.07867759,-9.450396,0,0,28.54715,1,1,1000,1000
29997,55:36.3,IMU,60484963,1,0.000834475,-0.001670431,-0.000116845,0.7902646,0.07799207,-9.448959,0,0,28.54715,1,1,760,800
30049,55:36.3,IMU,60524947,0,0.002046326,-0.000864582,-4.68E-05,0.79369,0.07921629,-9.495998,0,0,28.54934,1,1,1000,1000
30050,55:36.3,IMU,60524947,1,0.002255192,-0.000723345,-7.03E-05,0.7905819,0.07810292,-9.498457,0,0,28.54934,1,1,760,800
30151,55:36.4,IMU,60564931,0,0.001896475,-8.56E-05,-0.000111357,0.7939726,0.07902648,-9.540497,0,0,28.55153,1,1,1000,1000
30152,55:36.4,IMU,60564931,1,0.001735558,-2.39E-05,-0.000181005,0.7966344,0.07846542,-9.541918,0,0,28.55153,1,1,760,800
30208,55:36.4,IMU,60604915,0,0.003308944,-0.005235268,-4.04E-05,0.7963971,0.07939073,-9.582314,0,0,28.55373,1,1,1000,1000
30209,55:36.4,IMU,60604915,1,0.003311504,-0.005264661,-0.000235795,0.7968227,0.07660885,-9.583633,0,0,28.55373,1,1,760,800
30306,55:36.4,IMU,60644899,0,0.001271732,-0.000997271,-0.000183684,0.7978116,0.07825074,-9.621126,0,0,28.55592,1,1,1000,1000
30307,55:36.4,IMU,60644899,1,0.001313409,-0.001232243,-0.000155431,0.7970219,0.08128457,-9.619108,0,0,28.55592,1,1,760,800
30358,55:36.5,IMU,60684883,0,0.004008105,-0.004676913,-5.31E-05,0.7990241,0.07880603,-9.654831,0,0,28.55811,1,1,1000,1000
30359,55:36.5,IMU,60684883,1,0.004049123,-0.004729523,4.044368E-05,0.7979897,0.0797599,-9.654363,0,0,28.55811,1,1,760,800
30411,55:36.5,IMU,60724867,0,0.000609072,-0.005016822,-5.51E-05,0.8005487,0.07917657,-9.693189,0,0,28.5603,1,1,1000,1000
30412,55:36.5,IMU,60724867,1,0.000598969,-0.005001771,8.976313E-05,0.8004067,0.0795209,-9.693276,0,0,28.5603,1,1,760,800
30510,55:36.6,IMU,60764851,0,9.252185E-05,-0.004512353,5.003245E-05,0.8012188,0.08015411,-9.723601,0,0,28.5625,1,1,1000,1000
30511,55:36.6,IMU,60764851,1,0.000224187,-0.004480547,3.408309E-05,0.8003585,0.0790681,-9.724545,0,0,28.5625,1,1,760,800
30564,55:36.6,IMU,60804835,0,0.003038089,-0.005983766,0.000113111,0.802296,0.07926843,-9.75758,0,0,28.56469,1,1,1000,1000
30565,55:36.6,IMU,60804835,1,0.003041636,-0.005961823,5.723326E-05,0.8028234,0.08034001,-9.758213,0,0,28.56469,1,1,760,800
30662,55:36.6,IMU,60844819,0,0.000259272,-0.003585203,6.180967E-05,0.8044914,0.0788886,-9.786211,0,0,28.56688,1,1,1000,1000
30663,55:36.6,IMU,60844819,1,0.000253401,-0.003719046,0.000266899,0.8053708,0.07980625,-9.78686,0,0,28.56688,1,1,760,800
30713,55:36.7,IMU,60884803,0,4.632052E-05,-0.003782583,6.806898E-05,0.8041883,0.07947284,-9.794007,0,0,28.56907,1,1,1000,1000
30714,55:36.7,IMU,60884803,1,6.480982E-05,-0.003797966,4.290757E-05,0.8060141,0.07836997,-9.794657,0,0,28.56907,1,1,760,800
30765,55:36.7,IMU,60924787,0,0.003914385,-0.004644895,0.00018624,0.8049845,0.08005343,-9.823893,0,0,28.57126,1,1,1000,1000
30766,55:36.7,IMU,60924787,1,0.003928655,-0.00462287,0.000268343,0.8046719,0.08129789,-9.822136,0,0,28.57126,1,1,760,800
30866,55:36.8,IMU,60964771,0,0.002900159,-0.006189889,0.000234026,0.8054276,0.0807324,-9.835287,0,0,28.57345,1,1,1000,1000
30867,55:36.8,IMU,60964771,1,0.002927896,-0.006331549,0.000140975,0.8058072,0.0780562,-9.831066,0,0,28.57345,1,1,760,800
30920,55:36.8,IMU,61004755,0,0.002385843,-0.004436783,6.745599E-05,0.8055864,0.08023365,-9.855715,0,0,28.57564,1,1,1000,1000
30921,55:36.8,IMU,61004755,1,0.002254229,-0.004514157,0.000185037,0.8052541,0.07778224,-9.854171,0,0,28.57564,1,1,760,800
31021,55:36.8,IMU,61044739,0,0.002395558,-0.004080065,0.000178527,0.8069818,0.07953554,-9.855148,0,0,28.57783,1,1,1000,1000
31022,55:36.8,IMU,61044739,1,0.002250802,-0.004168577,0.000131135,0.8051435,0.08140931,-9.857618,0,0,28.57783,1,1,760,800
31072,55:36.9,IMU,61084723,0,-0.001466542,-0.007285561,8.820492E-05,0.8064325,0.07980783,-9.873251,0,0,28.58002,1,1,1000,1000
31073,55:36.9,IMU,61084723,1,-0.00135548,-0.007330884,6.183256E-05,0.8063306,0.07758219,-9.87215,0,0,28.58002,1,1,760,800
31124,55:36.9,IMU,61124707,0,-0.001292556,-0.003423681,8.190851E-05,0.8071535,0.08007169,-9.883091,0,0,28.58221,1,1,1000,1000
31125,55:36.9,IMU,61124707,1,-0.001323881,-0.003435309,-8.27E-05,0.8076766,0.0791238,-9.883508,0,0,28.58221,1,1,760,800
31223,55:37.0,IMU,61164691,0,0.000523526,-0.003815467,-4.94E-05,0.8063922,0.07975452,-9.884309,0,0,28.5844,1,1,1000,1000
31224,55:37.0,IMU,61164691,1,0.000643489,-0.003743767,5.996322E-05,0.8088977,0.07824589,-9.883203,0,0,28.5844,1,1,760,800
31277,55:37.0,IMU,61204675,0,-0.000409432,-0.003397065,-4.97E-05,0.8069269,0.08017404,-9.886018,0,0,28.58659,1,1,1000,1000
31278,55:37.0,IMU,61204675,1,-0.000422742,-0.00338327,-0.00010657,0.8048334,0.08180659,-9.884262,0,0,28.58659,1,1,760,800
31376,55:37.0,IMU,61244659,0,-0.000196371,-0.003051816,0.000113796,0.8041466,0.0792264,-9.884142,0,0,28.58877,1,1,1000,1000
31377,55:37.0,IMU,61244659,1,-0.000305975,-0.00326461,9.2316E-05,0.8066036,0.0789534,-9.883793,0,0,28.58877,1,1,760,800
31427,55:37.1,IMU,61284643,0,-0.0001647,-0.00278961,0.000138148,0.8063493,0.08037829,-9.883017,0,0,28.59096,1,1,1000,1000
31428,55:37.1,IMU,61284643,1,-0.000216578,-0.002841075,0.000264482,0.803553,0.08232846,-9.882874,0,0,28.59096,1,1,760,800
31479,55:37.1,IMU,61324627,0,-0.000106921,-0.002415404,0.000174916,0.8049636,0.07985002,-9.883225,0,0,28.59315,1,1,1000,1000
31480,55:37.1,IMU,61324627,1,-2.61E-05,-0.002572685,0.00019852,0.8042457,0.07902547,-9.880724,0,0,28.59315,1,1,760,800
31578,55:37.2,IMU,61364611,0,5.051996E-06,-0.002227243,0.000211388,0.8058544,0.07880764,-9.881481,0,0,28.59534,1,1,1000,1000
31579,55:37.2,IMU,61364611,1,7.498197E-05,-0.002250131,0.000466803,0.8081303,0.07866305,-9.883036,0,0,28.59534,1,1,760,800
31633,55:37.2,IMU,61404595,0,0.00013454,-0.002919907,0.000296892,0.8048263,0.07975659,-9.882074,0,0,28.59752,1,1,1000,1000
31634,55:37.2,IMU,61404595,1,2.656931E-05,-0.003006487,0.000160402,0.8041313,0.07828233,-9.88096,0,0,28.59752,1,1,760,800
31733,55:37.2,IMU,61444579,0,0.0001498,-0.002656343,0.00030313,0.8038312,0.07874391,-9.879775,0,0,28.59971,1,1,1000,1000
31734,55:37.2,IMU,61444579,1,7.775391E-05,-0.002606446,0.000249046,0.8059946,0.07831157,-9.881929,0,0,28.59971,1,1,760,800
31786,55:37.3,IMU,61485396,0,0.000195597,-0.004215719,0.000390967,0.8035992,0.07978622,-9.879058,0,0,28.60195,1,1,1000,1000
31787,55:37.3,IMU,61485396,1,0.000285826,-0.00417109,0.000429724,0.8027845,0.08006566,-9.877515,0,0,28.6019,1,1,760,800
31838,55:37.3,IMU,61525380,0,0.000706216,-0.007319753,0.000259257,0.8044302,0.07873538,-9.857189,0,0,28.60414,1,1,1000,1000
31839,55:37.3,IMU,61525380,1,0.000467675,-0.007429969,0.000237573,0.8021635,0.0807605,-9.85961,0,0,28.60408,1,1,760,800
31940,55:37.4,IMU,61565364,0,0.000666697,-0.007718535,9.451465E-05,0.802601,0.07963665,-9.855308,0,0,28.60632,1,1,1000,1000
31941,55:37.4,IMU,61565364,1,0.000533883,-0.007891499,0.000173871,0.8039863,0.07986215,-9.854393,0,0,28.60627,1,1,760,800
31995,55:37.4,IMU,61605348,0,-0.000407417,-0.007682082,-4.40E-05,0.8026437,0.07981676,-9.851992,0,0,28.60851,1,1,1000,1000
31996,55:37.4,IMU,61605348,1,-0.000512717,-0.007679989,-0.000117971,0.8009986,0.08072958,-9.851255,0,0,28.60846,1,1,760,800
32093,55:37.4,IMU,61645332,0,0.000585622,-0.004003083,-0.000157214,0.8009226,0.08081947,-9.844952,0,0,28.61069,1,1,1000,1000
32094,55:37.4,IMU,61645332,1,0.000696249,-0.004031833,-7.78E-05,0.8009257,0.07942124,-9.846242,0,0,28.61064,1,1,760,800
32144,55:37.5,IMU,61685316,0,0.000572628,-0.004539578,-8.82E-05,0.8015541,0.07875545,-9.841848,0,0,28.61288,1,1,1000,1000
32145,55:37.5,IMU,61685316,1,0.000734229,-0.004336001,-0.000107091,0.8018504,0.08068144,-9.841041,0,0,28.61283,1,1,760,800
32197,55:37.5,IMU,61725300,0,0.00058884,-0.00415965,1.236684E-05,0.8002837,0.08035932,-9.841066,0,0,28.61507,1,1,1000,1000
32198,55:37.5,IMU,61725300,1,0.000715001,-0.004186573,2.690531E-05,0.8009095,0.07890229,-9.84115,0,0,28.61501,1,1,760,800
32296,55:37.6,IMU,61765284,0,0.000610479,-0.00164577,0.000126184,0.8004423,0.08066483,-9.838363,0,0,28.61725,1,1,1000,1000
32297,55:37.6,IMU,61765284,1,0.000567343,-0.001756958,0.00013271,0.8015426,0.07900615,-9.840339,0,0,28.6172,1,1,760,800
32350,55:37.6,IMU,61805268,0,0.000926777,-0.00114251,0.00019645,0.7992153,0.0800756,-9.815599,0,0,28.61943,1,1,1000,1000
32351,55:37.6,IMU,61805268,1,0.001018418,-0.001161266,0.000191647,0.7969113,0.07749891,-9.814507,0,0,28.61938,1,1,760,800
32448,55:37.6,IMU,61845252,0,0.00157654,0.000489478,0.000404793,0.7990656,0.0791622,-9.811681,0,0,28.62162,1,1,1000,1000
32449,55:37.6,IMU,61845252,1,0.00156343,0.000438074,0.00048358,0.7986322,0.08023428,-9.810246,0,0,28.62156,1,1,760,800
32500,55:37.7,IMU,61885236,0,0.001670357,0.000504625,0.000623213,0.7980409,0.07995658,-9.809869,0,0,28.6238,1,1,1000,1000
32501,55:37.7,IMU,61885236,1,0.001586429,0.000373391,0.000480274,0.7982016,0.08087379,-9.811906,0,0,28.62375,1,1,760,800
32552,55:37.7,IMU,61925220,0,-0.001235876,0.000571881,0.000710356,0.7969047,0.08014414,-9.806869,0,0,28.62593,1,1,1000,1000
32553,55:37.7,IMU,61925220,1,-0.001046706,0.000317784,0.000812348,0.7974193,0.07773736,-9.807418,0,0,28.62593,1,1,760,800
32651,55:37.8,IMU,61965204,0,-0.000913182,0.000505775,0.000677831,0.7966303,0.08085883,-9.805166,0,0,28.62811,1,1,1000,1000
32652,55:37.8,IMU,61965204,1,-0.001063049,0.000361393,0.000904561,0.7975281,0.07908899,-9.807844,0,0,28.62811,1,1,760,800
32705,55:37.8,IMU,62005188,0,-0.000773671,0.000518275,0.000734536,0.797621,0.08036041,-9.806779,0,0,28.6303,1,1,1000,1000
32706,55:37.8,IMU,62005188,1,-0.000664045,0.000429634,0.000806659,0.7962283,0.08253255,-9.806046,0,0,28.6303,1,1,760,800
32806,55:37.8,IMU,62045172,0,-0.00061467,0.000583571,0.000733576,0.7957544,0.07882777,-9.806765,0,0,28.63248,1,1,1000,1000
32807,55:37.8,IMU,62045172,1,-0.000878751,0.000408943,0.000574984,0.7966478,0.0791292,-9.806516,0,0,28.63248,1,1,760,800
32857,55:37.9,IMU,62085156,0,0.000743205,0.002658006,0.000736706,0.7946099,0.08051934,-9.798353,0,0,28.63466,1,1,1000,1000
32858,55:37.9,IMU,62085156,1,0.000863368,0.002750646,0.000927406,0.7945135,0.07912729,-9.796486,0,0,28.63466,1,1,760,800
32909,55:37.9,IMU,62125140,0,0.001312197,0.002764985,0.000632281,0.7941186,0.07992806,-9.794065,0,0,28.63684,1,1,1000,1000
32910,55:37.9,IMU,62125140,1,0.001431314,0.002832219,0.000625326,0.7930766,0.08032606,-9.795137,0,0,28.63684,1,1,760,800
33008,55:38.0,IMU,62165124,0,0.001229123,0.000714769,0.000476874,0.7933125,0.08108681,-9.791043,0,0,28.63902,1,1,1000,1000
33009,55:38.0,IMU,62165124,1,0.001056511,0.00087097,0.00053645,0.7929747,0.08061425,-9.787924,0,0,28.63902,1,1,760,800
33062,55:38.0,IMU,62205108,0,0.001143777,-0.000573697,0.000478546,0.7940961,0.07978265,-9.789708,0,0,28.64121,1,1,1000,1000
33063,55:38.0,IMU,62205108,1,0.001125988,-0.000663984,0.000467812,0.7934438,0.07743866,-9.791026,0,0,28.64121,1,1,760,800
33161,55:38.0,IMU,62245092,0,0.001187243,0.001412687,0.000526992,0.7944534,0.08033241,-9.789673,0,0,28.64339,1,1,1000,1000
33162,55:38.0,IMU,62245092,1,0.001343672,0.001333965,0.000532687,0.7948107,0.07896738,-9.791016,0,0,28.64339,1,1,760,800
33212,55:38.1,IMU,62285076,0,0.002830204,0.001830896,0.000450676,0.7945244,0.08092058,-9.790727,0,0,28.64557,1,1,1000,1000
33213,55:38.1,IMU,62285076,1,0.002681042,0.001872464,0.000594611,0.7935428,0.08320008,-9.791479,0,0,28.64557,1,1,760,800
33264,55:38.1,IMU,62325060,0,0.00222433,0.000827915,0.00056591,0.7933072,0.08034159,-9.79032,0,0,28.6478,1,1,1000,1000
33265,55:38.1,IMU,62325060,1,0.002205131,0.000914995,0.000396194,0.7952428,0.07964131,-9.79073,0,0,28.6478,1,1,760,800
33363,55:38.2,IMU,62365044,0,0.002905549,0.001035767,0.000511656,0.7922587,0.0807789,-9.789576,0,0,28.64998,1,1,1000,1000
33364,55:38.2,IMU,62365044,1,0.002948888,0.001132104,0.00050911,0.7930408,0.0817587,-9.789835,0,0,28.64998,1,1,760,800
33418,55:38.2,IMU,62405028,0,0.002187159,-0.001126197,0.000605173,0.7920953,0.08192157,-9.788767,0,0,28.65216,1,1,1000,1000
33419,55:38.2,IMU,62405028,1,0.002217025,-0.001262367,0.000532678,0.7902417,0.08203568,-9.788023,0,0,28.65216,1,1,760,800
33518,55:38.2,IMU,62445012,0,0.001877658,-0.000994988,0.000648973,0.7916238,0.08237371,-9.789465,0,0,28.65434,1,1,1000,1000
33519,55:38.2,IMU,62445012,1,0.001695506,-0.000943227,0.000570479,0.7936303,0.07929118,-9.79031,0,0,28.65434,1,1,760,800
33572,55:38.3,IMU,62484996,0,0.003604019,0.000859464,0.000718653,0.7907578,0.07955093,-9.789063,0,0,28.65647,1,1,1000,1000
33573,55:38.3,IMU,62484996,1,0.003470083,0.000839765,0.00061563,0.7906317,0.08119193,-9.788574,0,0,28.65647,1,1,760,800
33624,55:38.3,IMU,62524980,0,0.004556646,0.004643157,0.00074112,0.790627,0.08109342,-9.788758,0,0,28.65865,1,1,1000,1000
33625,55:38.3,IMU,62524980,1,0.004707609,0.004826753,0.000788385,0.7936085,0.08068829,-9.789459,0,0,28.65865,1,1,760,800
33726,55:38.4,IMU,62564964,0,0.004613018,0.004415357,0.000808843,0.7896809,0.08098421,-9.788754,0,0,28.66083,1,1,1000,1000
33727,55:38.4,IMU,62564964,1,0.004569276,0.004529068,0.000871642,0.7902393,0.08279101,-9.790597,0,0,28.66083,1,1,760,800
33781,55:38.4,IMU,62604948,0,0.001459414,0.001702862,0.000814629,0.7914907,0.08050731,-9.788361,0,0,28.663,1,1,1000,1000
33782,55:38.4,IMU,62604948,1,0.001426768,0.001551173,0.000872706,0.7893693,0.07928296,-9.790648,0,0,28.663,1,1,760,800
33879,55:38.4,IMU,62644932,0,0.000770953,0.000328583,0.000895239,0.790624,0.08154281,-9.78817,0,0,28.66518,1,1,1000,1000
33880,55:38.4,IMU,62644932,1,0.000880887,0.000695714,0.000988065,0.791464,0.08184383,-9.78804,0,0,28.66518,1,1,760,800
33930,55:38.5,IMU,62684916,0,0.001211437,0.001365919,0.000909139,0.7908826,0.08192173,-9.788815,0,0,28.66736,1,1,1000,1000
33931,55:38.5,IMU,62684916,1,0.001145763,0.001312757,0.00099019,0.7900729,0.07986005,-9.789817,0,0,28.66736,1,1,760,800
33982,55:38.5,IMU,62724900,0,0.000214494,0.001962843,0.001002643,0.7902352,0.0808719,-9.787447,0,0,28.66954,1,1,1000,1000
33983,55:38.5,IMU,62724900,1,0.000421925,0.001863996,0.001115751,0.7899302,0.08187822,-9.787122,0,0,28.66954,1,1,760,800
34084,55:38.6,IMU,62764884,0,-0.000142414,0.002739013,0.001078647,0.790406,0.08107652,-9.789857,0,0,28.67171,1,1,1000,1000
34085,55:38.6,IMU,62764884,1,-0.000262661,0.002557772,0.001128539,0.7876239,0.08057638,-9.788656,0,0,28.67171,1,1,760,800
34138,55:38.6,IMU,62804868,0,-0.000336605,0.001265968,0.001099273,0.7899443,0.08099745,-9.789009,0,0,28.67389,1,1,1000,1000
34139,55:38.6,IMU,62804868,1,-2.75E-05,0.001388882,0.001104311,0.790272,0.08147088,-9.789955,0,0,28.67389,1,1,760,800
34236,55:38.6,IMU,62844852,0,0.000269727,0.001577909,0.001298751,0.7898051,0.08059327,-9.787584,0,0,28.67607,1,1,1000,1000
34237,55:38.6,IMU,62844852,1,0.000244488,0.001356702,0.001356815,0.7901696,0.08099389,-9.789001,0,0,28.67607,1,1,760,800
34287,55:38.7,IMU,62884836,0,0.002264319,0.002357834,0.001414508,0.788743,0.08170978,-9.789368,0,0,28.67824,1,1,1000,1000
34288,55:38.7,IMU,62884836,1,0.002437353,0.002455701,0.001458245,0.7889241,0.07863948,-9.791224,0,0,28.67824,1,1,760,800
34339,55:38.7,IMU,62924820,0,0.003683286,0.002839695,0.001464793,0.789936,0.0814284,-9.786931,0,0,28.68042,1,1,1000,1000
34340,55:38.7,IMU,62924820,1,0.003785752,0.002901197,0.00155269,0.7880963,0.0794644,-9.788288,0,0,28.68042,1,1,760,800
34438,55:38.8,IMU,62964804,0,0.003358074,0.002692731,0.001588931,0.788919,0.08196983,-9.787341,0,0,28.6826,1,1,1000,1000
34439,55:38.8,IMU,62964804,1,0.003381788,0.002587002,0.001618825,0.788865,0.07940847,-9.786929,0,0,28.6826,1,1,760,800
34492,55:38.8,IMU,63004788,0,0.002530248,0.002051681,0.00154074,0.7882506,0.08143235,-9.78886,0,0,28.68477,1,1,1000,1000
34493,55:38.8,IMU,63004788,1,0.002576975,0.00232037,0.001495014,0.7899157,0.08178148,-9.789087,0,0,28.68477,1,1,760,800
34593,55:38.8,IMU,63044772,0,0.00219138,0.00171171,0.001629299,0.7893783,0.08189929,-9.784925,0,0,28.68695,1,1,1000,1000
34594,55:38.8,IMU,63044772,1,0.002134886,0.001756115,0.001594861,0.7874805,0.08029224,-9.784391,0,0,28.68695,1,1,760,800
34644,55:38.9,IMU,63084756,0,0.004743638,0.004339778,0.001742453,0.7880867,0.08119892,-9.787762,0,0,28.68912,1,1,1000,1000
34645,55:38.9,IMU,63084756,1,0.004842165,0.004207622,0.001682141,0.790359,0.08170911,-9.787043,0,0,28.68912,1,1,760,800
34697,55:38.9,IMU,63124740,0,0.005074472,0.00405169,0.001649703,0.7879921,0.08104078,-9.788315,0,0,28.6913,1,1,1000,1000
34698,55:38.9,IMU,63124740,1,0.005274052,0.004241303,0.001675133,0.7889642,0.07932621,-9.787374,0,0,28.6913,1,1,760,800
34796,55:39.0,IMU,63164724,0,0.00353679,0.003453062,0.001649069,0.7885361,0.07993203,-9.78443,0,0,28.69347,1,1,1000,1000
34797,55:39.0,IMU,63164724,1,0.003681198,0.003295693,0.001741695,0.7865887,0.07975291,-9.788628,0,0,28.69347,1,1,760,800
34850,55:39.0,IMU,63204708,0,0.002785937,0.002113536,0.001672317,0.7883388,0.07906138,-9.786146,0,0,28.69564,1,1,1000,1000
34851,55:39.0,IMU,63204708,1,0.003009337,0.001944623,0.001638579,0.7877814,0.08211876,-9.784662,0,0,28.69564,1,1,760,800
34948,55:39.0,IMU,63244692,0,0.002660337,0.000960157,0.001576208,0.7885323,0.08054136,-9.785976,0,0,28.69782,1,1,1000,1000
34949,55:39.0,IMU,63244692,1,0.002767099,0.001018314,0.00152157,0.7875646,0.08008093,-9.786558,0,0,28.69782,1,1,760,800
35000,55:39.1,IMU,63284676,0,0.002958848,0.002954535,0.001589114,0.7880106,0.08056074,-9.784611,0,0,28.69999,1,1,1000,1000
35001,55:39.1,IMU,63284676,1,0.002944883,0.002731931,0.001613412,0.7875133,0.08271663,-9.785874,0,0,28.69999,1,1,760,800
35052,55:39.1,IMU,63324660,0,0.000718397,0.000915038,0.001580774,0.7878035,0.08096005,-9.781992,0,0,28.70217,1,1,1000,1000
35053,55:39.1,IMU,63324660,1,0.000766295,0.000635083,0.001667352,0.7888395,0.07696155,-9.782336,0,0,28.70217,1,1,760,800
35151,55:39.2,IMU,63364644,0,-0.000854076,-0.001319266,0.001552041,0.7877303,0.08052371,-9.784451,0,0,28.70434,1,1,1000,1000
35152,55:39.2,IMU,63364644,1,-0.000743947,-0.001300107,0.001663382,0.7896709,0.08054669,-9.780894,0,0,28.70434,1,1,760,800
35206,55:39.2,IMU,63404628,0,-0.000863715,0.001898268,0.001743453,0.7873859,0.07989939,-9.775624,0,0,28.70651,1,1,1000,1000
35207,55:39.2,IMU,63404628,1,-0.000921392,0.001766782,0.001775304,0.7889886,0.08135598,-9.776739,0,0,28.70651,1,1,760,800
35306,55:39.2,IMU,63444612,0,-0.000822392,0.001688586,0.001861081,0.7883734,0.07993366,-9.775071,0,0,28.70868,1,1,1000,1000
35307,55:39.2,IMU,63444612,1,-0.00077911,0.001784544,0.001838742,0.7877159,0.08070601,-9.77688,0,0,28.70868,1,1,760,800
35359,55:39.3,IMU,63484596,0,0.001571137,0.003565988,0.002014229,0.7877109,0.07907251,-9.776594,0,0,28.71086,1,1,1000,1000
35360,55:39.3,IMU,63484596,1,0.001736491,0.003584886,0.002135069,0.7879164,0.07900585,-9.778379,0,0,28.71086,1,1,760,800
35411,55:39.3,IMU,63524580,0,0.004589458,0.003288812,0.002193382,0.7873845,0.08090706,-9.773642,0,0,28.71303,1,1,1000,1000
35412,55:39.3,IMU,63524580,1,0.004689562,0.003219892,0.002259234,0.7903456,0.07985179,-9.775584,0,0,28.71303,1,1,760,800
35513,55:39.4,IMU,63565397,0,0.001488232,0.001376279,0.002035919,0.7873372,0.07962076,-9.773796,0,0,28.71525,1,1,1000,1000
35514,55:39.4,IMU,63565397,1,0.001426628,0.001419486,0.001844607,0.7865113,0.07924518,-9.771411,0,0,28.7152,1,1,760,800
35568,55:39.4,IMU,63605381,0,0.001430947,0.002216034,0.001964173,0.7876578,0.07947668,-9.772899,0,0,28.71742,1,1,1000,1000
35569,55:39.4,IMU,63605381,1,0.001545223,0.00206103,0.001935711,0.787474,0.07899293,-9.773607,0,0,28.71737,1,1,760,800
35666,55:39.4,IMU,63645365,0,0.001450054,0.001998646,0.001911364,0.7862981,0.07961591,-9.771612,0,0,28.71959,1,1,1000,1000
35667,55:39.4,IMU,63645365,1,0.001334038,0.002013789,0.00182833,0.7899215,0.07672236,-9.770944,0,0,28.71954,1,1,760,800
35717,55:39.5,IMU,63685349,0,0.001385812,0.001903257,0.001765237,0.7860978,0.07960999,-9.771627,0,0,28.72177,1,1,1000,1000
35718,55:39.5,IMU,63685349,1,0.001310169,0.001772782,0.001663551,0.7870211,0.0805909,-9.775194,0,0,28.72171,1,1,760,800
35769,55:39.5,IMU,63725333,0,0.001354924,0.001819998,0.001720996,0.785381,0.07942221,-9.771419,0,0,28.72394,1,1,1000,1000
35770,55:39.5,IMU,63725333,1,0.001216967,0.001481316,0.001779072,0.7882704,0.07748148,-9.77036,0,0,28.72388,1,1,760,800
35869,55:39.6,IMU,63765317,0,0.001323727,0.001733743,0.001638735,0.787519,0.07939711,-9.772323,0,0,28.7261,1,1,1000,1000
35870,55:39.6,IMU,63765317,1,0.001373532,0.001744805,0.001610307,0.7864974,0.08142012,-9.77306,0,0,28.72605,1,1,760,800
35923,55:39.6,IMU,63805301,0,0.00129436,0.001696955,0.00154946,0.7869575,0.07980558,-9.772361,0,0,28.72828,1,1,1000,1000
35924,55:39.6,IMU,63805301,1,0.001402598,0.001627,0.001686169,0.7874268,0.07613342,-9.771708,0,0,28.72822,1,1,760,800
36021,55:39.6,IMU,63845285,0,0.001287918,0.001574862,0.001565871,0.7871625,0.07947569,-9.772233,0,0,28.73045,1,1,1000,1000
36022,55:39.6,IMU,63845285,1,0.001229322,0.001616432,0.001443582,0.7852297,0.08077335,-9.77347,0,0,28.73039,1,1,760,800
36072,55:39.7,IMU,63885269,0,0.001208699,0.001573753,0.001474921,0.7868467,0.07857457,-9.772151,0,0,28.73261,1,1,1000,1000
36073,55:39.7,IMU,63885269,1,0.001232202,0.001410807,0.001544958,0.7886556,0.08023839,-9.771862,0,0,28.73256,1,1,760,800
36124,55:39.7,IMU,63925253,0,0.00123167,0.001598809,0.001436308,0.7862602,0.07899611,-9.772225,0,0,28.73478,1,1,1000,1000
36125,55:39.7,IMU,63925253,1,0.001406923,0.001374568,0.001402809,0.7868302,0.07987292,-9.772014,0,0,28.73473,1,1,760,800
36223,55:39.8,IMU,63965237,0,0.001194899,0.001507033,0.001405991,0.7868727,0.07891041,-9.773128,0,0,28.73695,1,1,1000,1000
36224,55:39.8,IMU,63965237,1,0.001190759,0.001554088,0.001297429,0.7877713,0.08042942,-9.773133,0,0,28.7369,1,1,760,800
36277,55:39.8,IMU,64005221,0,0.00112039,0.001444247,0.001415919,0.786626,0.07919513,-9.773521,0,0,28.73907,1,1,1000,1000
36278,55:39.8,IMU,64005221,1,0.001099513,0.001446922,0.00150102,0.7870071,0.07904933,-9.770823,0,0,28.73907,1,1,760,800
36377,55:39.8,IMU,64045205,0,0.001113366,0.001388757,0.00126588,0.7874126,0.07835611,-9.772867,0,0,28.74123,1,1,1000,1000
36378,55:39.8,IMU,64045205,1,0.001183641,0.001401094,0.001584772,0.7892296,0.07953373,-9.77501,0,0,28.74123,1,1,760,800
36429,55:39.9,IMU,64085189,0,0.00110713,0.002723196,0.001355848,0.7866846,0.0778712,-9.771947,0,0,28.7434,1,1,1000,1000
36430,55:39.9,IMU,64085189,1,0.001073686,0.002741307,0.00149044,0.7854413,0.07910285,-9.770667,0,0,28.7434,1,1,760,800
36481,55:39.9,IMU,64125173,0,0.001095367,0.000353021,0.001451885,0.7868555,0.07881646,-9.768978,0,0,28.74557,1,1,1000,1000
36482,55:39.9,IMU,64125173,1,0.000995128,0.000202906,0.001384313,0.7863757,0.07895088,-9.76781,0,0,28.74557,1,1,760,800
36580,55:40.0,IMU,64165157,0,0.001051946,-0.000271541,0.001626855,0.7869423,0.07871889,-9.766511,0,0,28.74773,1,1,1000,1000
36581,55:40.0,IMU,64165157,1,0.001071669,-0.000120822,0.001622857,0.7864214,0.07576219,-9.767599,0,0,28.74773,1,1,760,800
36634,55:40.0,IMU,64205141,0,0.00107044,0.000198944,0.001788765,0.7872834,0.07858381,-9.76825,0,0,28.7499,1,1,1000,1000
36635,55:40.0,IMU,64205141,1,0.001124759,0.000187775,0.001851331,0.7886253,0.07809821,-9.769262,0,0,28.7499,1,1,760,800
