,Timestamp,,TimeUS,I,GyrX,GyrY,GyrZ,AccX,AccY,AccZ,EG,EA,T,GH,AH,GHz,AHz
1933,25:14.5,IMU,65645398,0,0.000902184,0.000975665,0.000909117,-0.000436771,-0.001627776,-9.817502,0,0,28.82777,1,1,1000,1000
1934,25:14.5,IMU,65645398,1,0.001198883,0.001035904,0.001015485,-0.000465833,-0.000452171,-9.818029,0,0,28.82772,1,1,760,800
1984,25:14.5,IMU,65685382,0,0.000904584,0.000928657,0.000890461,-0.001618373,-0.000186698,-9.818495,0,0,28.82993,1,1,1000,1000
1985,25:14.5,IMU,65685382,1,0.000606843,0.000779647,0.000975187,-0.002940248,-0.002220477,-9.816321,0,0,28.82987,1,1,760,800
2037,25:14.5,IMU,65725366,0,0.000971583,0.000861597,0.000970166,-0.001149017,-0.001069156,-9.817202,0,0,28.83208,1,1,1000,1000
2038,25:14.5,IMU,65725366,1,0.000935355,0.000845488,0.00114542,-0.001560554,0.00167848,-9.817427,0,0,28.83203,1,1,760,800
2129,25:14.6,IMU,65765350,0,0.000925967,0.000944257,0.000899552,-0.001437568,-0.000952442,-9.817449,0,0,28.83424,1,1,1000,1000
2130,25:14.6,IMU,65765350,1,0.000958318,0.000832891,0.00121185,-0.002562559,-0.000996522,-9.817451,0,0,28.83418,1,1,760,800
2184,25:14.6,IMU,65805334,0,0.0008955,0.000980963,0.000883906,-0.000910965,-3.30E-05,-9.81712,0,0,28.83639,1,1,1000,1000
2185,25:14.6,IMU,65805334,1,0.001006317,0.001106041,0.000947671,-8.00E-05,-0.002961921,-9.816935,0,0,28.83634,1,1,760,800
2279,25:14.7,IMU,65845318,0,0.000876665,0.000978286,0.000952609,-0.000705211,-0.000837516,-9.816685,0,0,28.83855,1,1,1000,1000
2280,25:14.7,IMU,65845318,1,0.000902491,0.001065464,0.000904927,-0.000165544,-0.002108586,-9.816672,0,0,28.83849,1,1,760,800
2330,25:14.7,IMU,65885302,0,0.000873022,0.000827752,0.000865102,-0.001089746,-0.000308899,-9.817474,0,0,28.8407,1,1,1000,1000
2331,25:14.7,IMU,65885302,1,0.001008012,0.000883261,0.001186297,-0.002622883,-0.000439161,-9.81883,0,0,28.84065,1,1,760,800
2383,25:14.7,IMU,65925286,0,0.000963064,0.000905737,0.00092607,-0.000537458,-0.000990348,-9.817886,0,0,28.84286,1,1,1000,1000
2384,25:14.7,IMU,65925286,1,0.00098161,0.000913176,0.000736879,-0.000787638,0.000198284,-9.815667,0,0,28.8428,1,1,760,800
2478,25:14.8,IMU,65965270,0,0.000911941,0.000932544,0.000914381,-0.000341218,-0.001482163,-9.817921,0,0,28.84501,1,1,1000,1000
2479,25:14.8,IMU,65965270,1,0.000977512,0.000669053,0.001126448,-0.000882849,-0.002746576,-9.817742,0,0,28.84496,1,1,760,800
2533,25:14.8,IMU,66005254,0,0.000941995,0.000912577,0.000844596,-0.001003407,-0.001475006,-9.816901,0,0,28.84716,1,1,1000,1000
2534,25:14.8,IMU,66005254,1,0.000816186,0.001029946,0.000775052,0.000771193,0.001172542,-9.816557,0,0,28.84711,1,1,760,800
2630,25:14.9,IMU,66045238,0,0.000823371,0.000955193,0.000926626,-0.00165078,-0.000249336,-9.817495,0,0,28.84932,1,1,1000,1000
2631,25:14.9,IMU,66045238,1,0.00104323,0.000799902,0.000781385,-0.001968898,-0.002251589,-9.816801,0,0,28.84926,1,1,760,800
2681,25:14.9,IMU,66085222,0,0.000908404,0.000949732,0.000912432,-0.001278298,-0.002614901,-9.818682,0,0,28.85142,1,1,1000,1000
2682,25:14.9,IMU,66085222,1,0.000870503,0.000895036,0.000942226,0.001591114,-0.002316823,-9.818,0,0,28.85142,1,1,760,800
2734,25:14.9,IMU,66125206,0,0.000943338,0.000859227,0.000908264,-0.00044483,-0.000974012,-9.816919,0,0,28.85357,1,1,1000,1000
2735,25:14.9,IMU,66125206,1,0.000931011,0.000779888,0.001020729,-0.001730022,-0.001528524,-9.816723,0,0,28.85357,1,1,760,800
2831,25:15.0,IMU,66165190,0,0.00088483,0.000951348,0.000962599,-0.001028489,-0.001514926,-9.817533,0,0,28.85572,1,1,1000,1000
2832,25:15.0,IMU,66165190,1,0.00098886,0.000602185,0.000744077,-0.00159559,0.00026676,-9.821097,0,0,28.85572,1,1,760,800
2886,25:15.0,IMU,66205174,0,0.000919382,0.000961355,0.000942773,-0.001257391,-0.000762869,-9.818627,0,0,28.85788,1,1,1000,1000
2887,25:15.0,IMU,66205174,1,0.000869368,0.00085746,0.000974924,-0.001919845,0.001234117,-9.815004,0,0,28.85788,1,1,760,800
2980,25:15.1,IMU,66245158,0,0.000925263,0.000920739,0.000996372,-0.000421381,-0.001326644,-9.817919,0,0,28.86003,1,1,1000,1000
2981,25:15.1,IMU,66245158,1,0.001008912,0.000843634,0.000965459,5.206492E-05,-9.07E-05,-9.816121,0,0,28.86003,1,1,760,800
3030,25:15.1,IMU,66285142,0,0.000906544,0.000916059,0.000971443,-0.001373877,-0.001206823,-9.817187,0,0,28.86218,1,1,1000,1000
3031,25:15.1,IMU,66285142,1,0.000954761,0.000905906,0.000732898,6.988859E-05,-0.00256401,-9.817173,0,0,28.86218,1,1,760,800
3083,25:15.1,IMU,66325126,0,0.000904956,0.000927027,0.000945421,-0.001085606,-0.000479439,-9.817383,0,0,28.86433,1,1,1000,1000
3084,25:15.1,IMU,66325126,1,0.001066752,0.000955448,0.000935439,-0.001629574,0.000283225,-9.818277,0,0,28.86433,1,1,760,800
3177,25:15.2,IMU,66365110,0,0.000956297,0.000933141,0.000876877,-0.000803149,-0.001727389,-9.817407,0,0,28.86648,1,1,1000,1000
3178,25:15.2,IMU,66365110,1,0.000993269,0.000984338,0.000930928,-0.00128921,-0.000372466,-9.81913,0,0,28.86648,1,1,760,800
3231,25:15.2,IMU,66405094,0,0.000993221,0.000924747,0.000939896,-0.000792131,-0.000937562,-9.817413,0,0,28.86863,1,1,1000,1000
3232,25:15.2,IMU,66405094,1,0.001196026,0.000813952,0.00090833,-0.001162469,-0.001389479,-9.816682,0,0,28.86863,1,1,760,800
3327,25:15.3,IMU,66445078,0,0.000912949,0.00090468,0.0009508,-0.00042122,-0.002078401,-9.817936,0,0,28.87078,1,1,1000,1000
3328,25:15.3,IMU,66445078,1,0.001016438,0.001030814,0.000799738,-0.001901997,-0.001347913,-9.815113,0,0,28.87078,1,1,760,800
3380,25:15.3,IMU,66485062,0,0.000933598,0.000905182,0.000893694,-0.001897303,-0.000886485,-9.817626,0,0,28.87299,1,1,1000,1000
3381,25:15.3,IMU,66485062,1,0.00085157,0.00073062,0.000799758,-0.001832595,-0.002482201,-9.816237,0,0,28.87299,1,1,760,800
3433,25:15.3,IMU,66525046,0,0.000928858,0.000874157,0.000939286,-0.001218908,-0.001526948,-9.817975,0,0,28.87514,1,1,1000,1000
3434,25:15.3,IMU,66525046,1,0.00095953,0.000981643,0.000943996,-0.001771435,0.000778321,-9.817906,0,0,28.87514,1,1,760,800
3530,25:15.4,IMU,66565030,0,0.000968535,0.000983069,0.000924876,-0.000401201,-0.00086539,-9.8173,0,0,28.87729,1,1,1000,1000
3531,25:15.4,IMU,66565030,1,0.000936657,0.000569621,0.000852024,0.000658428,-0.001693112,-9.819484,0,0,28.87729,1,1,760,800
3587,25:15.4,IMU,66605014,0,0.000960686,0.00088944,0.000900321,-0.00103683,-0.000988251,-9.817203,0,0,28.87944,1,1,1000,1000
3588,25:15.4,IMU,66605014,1,0.000885491,0.000821637,0.000897144,-0.002355246,-1.53E-05,-9.816877,0,0,28.87944,1,1,760,800
3681,25:15.5,IMU,66644998,0,0.001002696,0.000973621,0.000961893,-0.000846708,-0.0007185,-9.818369,0,0,28.88153,1,1,1000,1000
3682,25:15.5,IMU,66644998,1,0.001101366,0.001277267,0.001062787,-0.00130732,-0.001125615,-9.817959,0,0,28.88153,1,1,760,800
3732,25:15.5,IMU,66684982,0,0.000964063,0.000996804,0.00091126,-0.001223831,-0.001027661,-9.817644,0,0,28.88368,1,1,1000,1000
3733,25:15.5,IMU,66684982,1,0.000820039,0.000899729,0.000911324,-0.001576444,-0.000808652,-9.818026,0,0,28.88368,1,1,760,800
3785,25:15.5,IMU,66724966,0,0.000840045,0.000940916,0.000956068,-0.001382723,-0.001020489,-9.81848,0,0,28.88583,1,1,1000,1000
3786,25:15.5,IMU,66724966,1,0.001144531,0.000879913,0.000909504,-0.001427034,-0.001210399,-9.818791,0,0,28.88583,1,1,760,800
3883,25:15.6,IMU,66764950,0,0.000909549,0.00091253,0.00099718,-0.002051013,-0.001649236,-9.817276,0,0,28.88798,1,1,1000,1000
3884,25:15.6,IMU,66764950,1,0.001142056,0.000655557,0.00095668,-0.000777399,0.000570588,-9.819284,0,0,28.88798,1,1,760,800
3938,25:15.6,IMU,66804934,0,0.000907076,0.000989208,0.000886212,-0.000808999,-0.000636414,-9.81708,0,0,28.89013,1,1,1000,1000
3939,25:15.6,IMU,66804934,1,0.000793807,0.001058744,0.000843732,-0.002624937,0.000161204,-9.817481,0,0,28.89013,1,1,760,800
4033,25:15.7,IMU,66844918,0,0.00092348,0.000937494,0.000964716,-0.000475855,-0.001521689,-9.816664,0,0,28.89227,1,1,1000,1000
4034,25:15.7,IMU,66844918,1,0.001046003,0.000911307,0.000792449,-0.001394382,-0.004002519,-9.81789,0,0,28.89227,1,1,760,800
4085,25:15.7,IMU,66884902,0,0.000955574,0.000909599,0.000900814,-0.000482407,-0.000423519,-9.816527,0,0,28.89442,1,1,1000,1000
4086,25:15.7,IMU,66884902,1,0.000939917,0.000891895,0.000677817,-0.002392107,-0.001822978,-9.816867,0,0,28.89442,1,1,760,800
4138,25:15.7,IMU,66924886,0,0.00100846,0.001011667,0.000980552,-0.000129063,-0.001359074,-9.81664,0,0,28.89657,1,1,1000,1000
4139,25:15.7,IMU,66924886,1,0.000826531,0.000820226,0.001151783,-0.000538537,-0.001022949,-9.81735,0,0,28.89657,1,1,760,800
4233,25:15.8,IMU,66964870,0,0.000946222,0.001004212,0.000929572,-0.000731153,-0.000691444,-9.816357,0,0,28.89872,1,1,1000,1000
4234,25:15.8,IMU,66964870,1,0.001066302,0.000812254,0.000824122,-0.001818585,-0.002603948,-9.818009,0,0,28.89872,1,1,760,800
4288,25:15.8,IMU,67004854,0,0.000979883,0.000950093,0.001035983,-0.000916744,-0.000989612,-9.817087,0,0,28.90086,1,1,1000,1000
4289,25:15.8,IMU,67004854,1,0.00116887,0.000773848,0.001021179,0.001006297,-0.0019942,-9.816645,0,0,28.90086,1,1,760,800
4383,25:15.9,IMU,67044838,0,0.000915393,0.000917921,0.000945874,-0.001182605,-0.000222079,-9.81918,0,0,28.90301,1,1,1000,1000
4384,25:15.9,IMU,67044838,1,0.000951506,0.000940398,0.000842611,-0.000187387,0.000670428,-9.814248,0,0,28.90301,1,1,760,800
4436,25:15.9,IMU,67084822,0,0.000921976,0.00089016,0.000977058,-0.000225728,-0.000322425,-9.816875,0,0,28.90516,1,1,1000,1000
4437,25:15.9,IMU,67084822,1,0.00101118,0.000871587,0.000984695,-0.001127687,0.000633187,-9.815823,0,0,28.90516,1,1,760,800
4489,25:15.9,IMU,67124806,0,0.000968254,0.000935141,0.001002396,-5.17E-05,-0.000854204,-9.818775,0,0,28.9073,1,1,1000,1000
4490,25:15.9,IMU,67124806,1,0.000858633,0.000665927,0.000837248,-0.001310992,-0.002069658,-9.817595,0,0,28.9073,1,1,760,800
4584,25:16.0,IMU,67164790,0,0.000866497,0.000916557,0.000832464,-0.000545989,-0.000956885,-9.817266,0,0,28.90945,1,1,1000,1000
4585,25:16.0,IMU,67164790,1,0.001045121,0.000755095,0.001073902,-0.001823051,-0.002374992,-9.817481,0,0,28.90945,1,1,760,800
4639,25:16.0,IMU,67204774,0,0.000870067,0.000999607,0.000880132,-0.000587055,-0.000520355,-9.816792,0,0,28.91159,1,1,1000,1000
4640,25:16.0,IMU,67204774,1,0.000972729,0.000871683,0.000882165,-0.001301657,-0.001633552,-9.81846,0,0,28.91159,1,1,760,800
4733,25:16.1,IMU,67244758,0,0.000881513,0.000979096,0.000913122,-0.000301357,-0.000948454,-9.817811,0,0,28.91374,1,1,1000,1000
4734,25:16.1,IMU,67244758,1,0.001117408,0.000981044,0.001107394,-0.00191577,0.001639638,-9.815521,0,0,28.91374,1,1,760,800
4785,25:16.1,IMU,67284742,0,0.00097706,0.000908139,0.000946707,-0.000423702,-0.00094091,-9.817225,0,0,28.91588,1,1,1000,1000
4786,25:16.1,IMU,67284742,1,0.001031509,0.001076427,0.000757876,-0.001668079,-0.000296444,-9.819487,0,0,28.91588,1,1,760,800
4838,25:16.1,IMU,67324726,0,0.000968133,0.000951981,0.00090591,-0.00057151,-0.000227361,-9.816891,0,0,28.91803,1,1,1000,1000
4839,25:16.1,IMU,67324726,1,0.001133643,0.00113881,0.000861151,-0.003293726,0.000118774,-9.816419,0,0,28.91803,1,1,760,800
4933,25:16.2,IMU,67364710,0,0.000973344,0.000989751,0.000904824,-0.000802691,-0.000780989,-9.817361,0,0,28.92017,1,1,1000,1000
4934,25:16.2,IMU,67364710,1,0.000932285,0.000968389,0.00088417,-0.000268247,-0.000424167,-9.818254,0,0,28.92017,1,1,760,800
4988,25:16.2,IMU,67404694,0,0.000975252,0.000963286,0.000970177,-0.001406818,2.698663E-05,-9.81708,0,0,28.92232,1,1,1000,1000
4989,25:16.2,IMU,67404694,1,0.001095345,0.000874114,0.000642463,0.000948619,-0.001981949,-9.815954,0,0,28.92232,1,1,760,800
5084,25:16.3,IMU,67444678,0,0.00089938,0.000923718,0.000913586,-0.000907683,-9.47E-05,-9.816639,0,0,28.92446,1,1,1000,1000
5085,25:16.3,IMU,67444678,1,0.000738995,0.000831928,0.001033945,0.001041006,-0.001033539,-9.818931,0,0,28.92446,1,1,760,800
5138,25:16.3,IMU,67484662,0,0.000909813,0.000873182,0.000900255,3.199348E-05,-0.000638509,-9.817449,0,0,28.9266,1,1,1000,1000
5139,25:16.3,IMU,67484662,1,0.000808679,0.001253003,0.00103496,-0.001600364,-0.000487315,-9.819131,0,0,28.9266,1,1,760,800
5191,25:16.3,IMU,67524646,0,0.000943727,0.001005754,0.000919167,-0.000870132,-0.00131929,-9.818079,0,0,28.92875,1,1,1000,1000
5192,25:16.3,IMU,67524646,1,0.000768448,0.001173863,0.000854243,0.000175388,-0.002208529,-9.818184,0,0,28.92875,1,1,760,800
5288,25:16.4,IMU,67564630,0,0.000924006,0.000908317,0.000977035,-0.000488664,0.000472249,-9.816676,0,0,28.93089,1,1,1000,1000
5289,25:16.4,IMU,67564630,1,0.000966441,0.001028678,0.001141086,-0.003278174,-0.000146918,-9.817943,0,0,28.93089,1,1,760,800
5345,25:16.4,IMU,67604614,0,0.000972841,0.000923908,0.000867921,-0.000747104,-8.03E-05,-9.817454,0,0,28.93303,1,1,1000,1000
5346,25:16.4,IMU,67604614,1,0.001058535,0.000830747,0.000947301,0.000406259,0.000208943,-9.817816,0,0,28.93303,1,1,760,800
5440,25:16.5,IMU,67644598,0,0.000912861,0.000960401,0.001024723,-0.000481132,-0.001599703,-9.817478,0,0,28.93517,1,1,1000,1000
5441,25:16.5,IMU,67644598,1,0.000927347,0.001045298,0.000733011,-0.001255749,-0.000177693,-9.819478,0,0,28.93517,1,1,760,800
5492,25:16.5,IMU,67684582,0,0.000953698,0.000908405,0.000964934,-0.001064751,-0.00078881,-9.817801,0,0,28.93731,1,1,1000,1000
5493,25:16.5,IMU,67684582,1,0.001097526,0.000755704,0.001039271,-0.002804646,0.000768961,-9.816849,0,0,28.93731,1,1,760,800
5544,25:16.5,IMU,67725399,0,0.000890024,0.00094035,0.000959675,-0.000928317,-0.000920936,-9.816586,0,0,28.93951,1,1,1000,1000
5545,25:16.5,IMU,67725399,1,0.001051106,0.000718461,0.001178358,-0.000742264,-0.002485354,-9.816031,0,0,28.93946,1,1,760,800
5640,25:16.6,IMU,67765383,0,0.000974247,0.000980121,0.000970717,-0.00047936,-0.001667006,-9.81832,0,0,28.94165,1,1,1000,1000
5641,25:16.6,IMU,67765383,1,0.000966145,0.001103474,0.000716618,-0.000407482,-0.001629484,-9.818054,0,0,28.9416,1,1,760,800
5695,25:16.6,IMU,67805367,0,0.000957515,0.000982849,0.000960056,-0.000623868,-0.001355318,-9.817069,0,0,28.94379,1,1,1000,1000
5696,25:16.6,IMU,67805367,1,0.00125793,0.000968623,0.000880651,-0.002968615,-0.000199331,-9.816305,0,0,28.94374,1,1,760,800
5789,25:16.7,IMU,67845351,0,0.001051162,0.000907873,0.000924051,-0.000943042,-0.000704094,-9.818467,0,0,28.94593,1,1,1000,1000
5790,25:16.7,IMU,67845351,1,0.001219905,0.001000311,0.001021353,0.000667024,-0.002491286,-9.815836,0,0,28.94588,1,1,760,800
5842,25:16.7,IMU,67885335,0,0.00086767,0.000985901,0.000952646,-0.001802995,-0.002730226,-9.81766,0,0,28.94807,1,1,1000,1000
5843,25:16.7,IMU,67885335,1,0.001054451,0.00104106,0.001097177,-0.001700056,-0.001838118,-9.816242,0,0,28.94802,1,1,760,800
5895,25:16.7,IMU,67925319,0,0.000995729,0.000959184,0.001013839,-0.000544086,-0.000785247,-9.817001,0,0,28.95021,1,1,1000,1000
5896,25:16.7,IMU,67925319,1,0.001144762,0.00087486,0.000992753,-0.002588369,-0.002202666,-9.816072,0,0,28.95016,1,1,760,800
5989,25:16.8,IMU,67965303,0,0.000890836,0.000970093,0.00092301,-0.000419596,-0.000910974,-9.818528,0,0,28.95235,1,1,1000,1000
5990,25:16.8,IMU,67965303,1,0.000922141,0.000805386,0.000828603,0.000460078,-0.001351567,-9.819802,0,0,28.9523,1,1,760,800
6045,25:16.8,IMU,68005287,0,0.000946679,0.000985441,0.000968527,-0.002045364,-0.001041088,-9.817471,0,0,28.95449,1,1,1000,1000
6046,25:16.8,IMU,68005287,1,0.000852822,0.0010348,0.000992299,-0.000678769,-0.000288993,-9.81887,0,0,28.95444,1,1,760,800
6141,25:16.9,IMU,68045271,0,0.000965039,0.00094224,0.000900574,-0.001800347,0.000458558,-9.818615,0,0,28.95663,1,1,1000,1000
6142,25:16.9,IMU,68045271,1,0.000856992,0.000819594,0.000804642,-0.001275444,0.001224733,-9.81731,0,0,28.95658,1,1,760,800
6193,25:16.9,IMU,68085255,0,0.000930046,0.000884075,0.001099775,-0.001583359,-0.000837114,-9.817118,0,0,28.95877,1,1,1000,1000
6194,25:16.9,IMU,68085255,1,0.001287114,0.00096764,0.0007531,-7.88E-05,0.000409238,-9.816815,0,0,28.95872,1,1,760,800
6247,25:16.9,IMU,68125239,0,0.000973828,0.000961582,0.000977116,-0.001587666,-0.002005884,-9.817122,0,0,28.96091,1,1,1000,1000
6248,25:16.9,IMU,68125239,1,0.000941051,0.000638996,0.001074105,-0.000570734,-0.000515616,-9.817339,0,0,28.96086,1,1,760,800
6341,25:17.0,IMU,68165223,0,0.000996866,0.000993582,0.00098806,-0.001201982,-0.001526538,-9.818034,0,0,28.96299,1,1,1000,1000
6342,25:17.0,IMU,68165223,1,0.001167787,0.000911885,0.001005118,-0.003794995,-0.001632873,-9.816339,0,0,28.96299,1,1,760,800
6396,25:17.0,IMU,68205207,0,0.000913391,0.000886414,0.000947822,-0.00124207,-0.001451365,-9.818192,0,0,28.96513,1,1,1000,1000
6397,25:17.0,IMU,68205207,1,0.000944235,0.001094018,0.000866544,-0.001995833,-0.000988733,-9.818448,0,0,28.96513,1,1,760,800
6490,25:17.1,IMU,68245191,0,0.000943626,0.000989825,0.000944425,-0.002024777,-0.000970252,-9.816414,0,0,28.96727,1,1,1000,1000
6491,25:17.1,IMU,68245191,1,0.001135364,0.000833077,0.000990729,0.000658905,-0.00167173,-9.816201,0,0,28.96727,1,1,760,800
6542,25:17.1,IMU,68285175,0,0.000933826,0.000905648,0.000948272,-0.001066882,-0.001102005,-9.817375,0,0,28.96941,1,1,1000,1000
6543,25:17.1,IMU,68285175,1,0.000950452,0.000824728,0.001141521,-0.00090388,-0.001884711,-9.81768,0,0,28.96941,1,1,760,800
6595,25:17.1,IMU,68325159,0,0.000935264,0.000999603,0.000954604,-0.001495496,9.13453E-05,-9.817055,0,0,28.97154,1,1,1000,1000
6596,25:17.1,IMU,68325159,1,0.00111788,0.000999301,0.000919952,-0.00065194,-0.000916984,-9.82088,0,0,28.97154,1,1,760,800
6691,25:17.2,IMU,68365143,0,0.000961868,0.000973032,0.000933344,-0.001656298,-0.001745376,-9.816757,0,0,28.97368,1,1,1000,1000
6692,25:17.2,IMU,68365143,1,0.001021725,0.000904592,0.000821773,-1.35E-05,-0.000310504,-9.816561,0,0,28.97368,1,1,760,800
6746,25:17.2,IMU,68405127,0,0.000909387,0.000965184,0.000985447,-0.001244687,-0.000260314,-9.819212,0,0,28.97582,1,1,1000,1000
6747,25:17.2,IMU,68405127,1,0.000998082,0.000824936,0.001013849,-0.001624051,-0.001040835,-9.817268,0,0,28.97582,1,1,760,800
6841,25:17.3,IMU,68445111,0,0.00094225,0.000945994,0.000964285,-0.0006008,-0.001030006,-9.817255,0,0,28.97795,1,1,1000,1000
6842,25:17.3,IMU,68445111,1,0.001098388,0.00120268,0.00097416,-0.000807338,-9.03E-05,-9.817709,0,0,28.97795,1,1,760,800
6895,25:17.3,IMU,68485095,0,0.000970113,0.000997596,0.000962158,0.000152136,-0.001202316,-9.817108,0,0,28.98009,1,1,1000,1000
6896,25:17.3,IMU,68485095,1,0.00114728,0.000878355,0.000845808,-0.000648714,-0.003347712,-9.81737,0,0,28.98009,1,1,760,800
6948,25:17.3,IMU,68525079,0,0.000931286,0.000931888,0.001017134,-0.000494106,-0.001023452,-9.817413,0,0,28.98223,1,1,1000,1000
6949,25:17.3,IMU,68525079,1,0.001222712,0.00108585,0.000976343,-0.00082695,-0.000968884,-9.81739,0,0,28.98223,1,1,760,800
7045,25:17.4,IMU,68565063,0,0.000956302,0.000938791,0.000847325,-0.00194479,-0.000716632,-9.817289,0,0,28.98442,1,1,1000,1000
7046,25:17.4,IMU,68565063,1,0.001037385,0.00095306,0.001051667,0.000225065,-0.001644861,-9.821029,0,0,28.98442,1,1,760,800
7102,25:17.4,IMU,68605047,0,0.0008936,0.00102131,0.000921391,-0.001447353,-0.00038953,-9.81738,0,0,28.98655,1,1,1000,1000
7103,25:17.4,IMU,68605047,1,0.001058568,0.00082857,0.000905157,-0.00260298,0.001296742,-9.816888,0,0,28.98655,1,1,760,800
7195,25:17.5,IMU,68645031,0,0.000931189,0.000978315,0.000956455,-0.002405967,-0.001590189,-9.817059,0,0,28.98869,1,1,1000,1000
7196,25:17.5,IMU,68645031,1,0.00095622,0.000933158,0.00094782,6.104748E-05,-0.003062026,-9.819316,0,0,28.98869,1,1,760,800
7247,25:17.5,IMU,68685015,0,0.000891674,0.000911045,0.000985866,-0.001805049,0.000356885,-9.817082,0,0,28.99082,1,1,1000,1000
7248,25:17.5,IMU,68685015,1,0.000798556,0.000981585,0.001003989,0.001836986,-0.001205591,-9.816536,0,0,28.99082,1,1,760,800
7300,25:17.5,IMU,68724999,0,0.000959214,0.00101673,0.000989492,-0.001132426,-0.000251296,-9.81711,0,0,28.9929,1,1,1000,1000
7301,25:17.5,IMU,68724999,1,0.000956527,0.001153352,0.001094074,0.00088452,0.001350494,-9.819389,0,0,28.9929,1,1,760,800
7396,25:17.6,IMU,68764983,0,0.000986714,0.001056548,0.000901749,-0.00046359,-0.000451924,-9.817963,0,0,28.99504,1,1,1000,1000
7397,25:17.6,IMU,68764983,1,0.000939483,0.000766344,0.000851152,0.002829931,-0.002700337,-9.8183,0,0,28.99504,1,1,760,800
7451,25:17.6,IMU,68804967,0,0.000951114,0.000911333,0.001014656,-0.001171615,-0.002086049,-9.817226,0,0,28.99717,1,1,1000,1000
7452,25:17.6,IMU,68804967,1,0.001030752,0.001071242,0.001018257,0.001472393,0.000519928,-9.817773,0,0,28.99717,1,1,760,800
7545,25:17.7,IMU,68844951,0,0.000957586,0.001015413,0.000962207,-0.001925687,-0.000863733,-9.817864,0,0,28.9993,1,1,1000,1000
7546,25:17.7,IMU,68844951,1,0.000865841,0.000779769,0.000884538,0.00137273,-0.001532464,-9.815754,0,0,28.9993,1,1,760,800
7597,25:17.7,IMU,68884935,0,0.0009121,0.000993234,0.00095045,-0.001364607,0.000162219,-9.817079,0,0,29.00144,1,1,1000,1000
7598,25:17.7,IMU,68884935,1,0.001006877,0.000752161,0.000959037,-0.000792489,-0.002786511,-9.815442,0,0,29.00144,1,1,760,800
7650,25:17.7,IMU,68924919,0,0.000883923,0.000920299,0.000957828,-0.000549204,-0.000651195,-9.818068,0,0,29.00357,1,1,1000,1000
7651,25:17.7,IMU,68924919,1,0.000996963,0.000838877,0.001027034,-0.004064289,-0.002022336,-9.817085,0,0,29.00357,1,1,760,800
7745,25:17.8,IMU,68964903,0,0.000947409,0.001016367,0.000974529,-0.001148282,-0.000648736,-9.81718,0,0,29.0057,1,1,1000,1000
7746,25:17.8,IMU,68964903,1,0.000899796,0.00100175,0.000658531,-0.002159294,-0.002562975,-9.817184,0,0,29.0057,1,1,760,800
7800,25:17.8,IMU,69004887,0,0.000942887,0.000941772,0.001010671,-0.001968791,-0.000250438,-9.818312,0,0,29.00784,1,1,1000,1000
7801,25:17.8,IMU,69004887,1,0.000771201,0.000743132,0.001087815,-0.000854462,-0.000712518,-9.81815,0,0,29.00784,1,1,760,800
7896,25:17.9,IMU,69044871,0,0.000891833,0.001057404,0.001011818,-0.001459212,-0.001321636,-9.817832,0,0,29.00997,1,1,1000,1000
7897,25:17.9,IMU,69044871,1,0.001113371,0.001010595,0.00088834,0.001599326,-0.001663845,-9.818269,0,0,29.00997,1,1,760,800
7948,25:17.9,IMU,69084855,0,0.000997837,0.000977585,0.000968074,-0.002225856,-0.001680059,-9.817226,0,0,29.0121,1,1,1000,1000
7949,25:17.9,IMU,69084855,1,0.000860337,0.00102341,0.000877872,-0.001177655,-0.000720329,-9.815767,0,0,29.0121,1,1,760,800
8002,25:17.9,IMU,69124839,0,0.000933177,0.001075126,0.001005844,-0.002030285,-0.000696252,-9.817484,0,0,29.01423,1,1,1000,1000
8003,25:17.9,IMU,69124839,1,0.001018399,0.00106347,0.001025453,0.00023797,-0.000789085,-9.818234,0,0,29.01423,1,1,760,800
8097,25:18.0,IMU,69164823,0,0.000993128,0.000982269,0.001020879,-0.000895548,-0.001320438,-9.817312,0,0,29.01636,1,1,1000,1000
8098,25:18.0,IMU,69164823,1,0.000924665,0.000924519,0.001150163,-0.000107505,2.413101E-05,-9.817178,0,0,29.01636,1,1,760,800
8152,25:18.0,IMU,69204807,0,0.000955104,0.0010055,0.001014023,-0.000454575,-0.000173749,-9.818657,0,0,29.01849,1,1,1000,1000
8153,25:18.0,IMU,69204807,1,0.001073378,0.001051375,0.001264929,-0.002692455,-0.000413661,-9.818464,0,0,29.01849,1,1,760,800
8246,25:18.1,IMU,69244791,0,0.001029837,0.001033722,0.000964443,-0.000538052,-0.000589575,-9.81719,0,0,29.02062,1,1,1000,1000
8247,25:18.1,IMU,69244791,1,0.000987353,0.000944241,0.00089879,-0.001901163,0.000665421,-9.817984,0,0,29.02062,1,1,760,800
8298,25:18.1,IMU,69284775,0,0.000981523,0.000984239,0.000963131,-0.00126163,-0.001472455,-9.817929,0,0,29.02275,1,1,1000,1000
8299,25:18.1,IMU,69284775,1,0.001211777,0.001102359,0.000996917,0.000767957,-0.0019911,-9.817579,0,0,29.02275,1,1,760,800
8351,25:18.1,IMU,69324759,0,0.001005416,0.000957482,0.00101671,-0.001589728,-0.001453956,-9.817915,0,0,29.02489,1,1,1000,1000
8352,25:18.1,IMU,69324759,1,0.001083647,0.000946521,0.000988251,2.126768E-05,-0.001974067,-9.816886,0,0,29.02489,1,1,760,800
8452,25:18.2,IMU,69364743,0,0.000982742,0.000948579,0.000968169,-0.000253237,-0.001121301,-9.817875,0,0,29.02701,1,1,1000,1000
8453,25:18.2,IMU,69364743,1,0.001020169,0.001065895,0.000801917,-0.000788733,-0.000569218,-9.81644,0,0,29.02701,1,1,760,800
8508,25:18.2,IMU,69404727,0,0.00095869,0.000989628,0.000940578,-0.001482198,-0.002362682,-9.817575,0,0,29.02914,1,1,1000,1000
8509,25:18.2,IMU,69404727,1,0.000809941,0.000982752,0.00105205,-0.000601866,-0.001695097,-9.818669,0,0,29.02914,1,1,760,800
8609,25:18.3,IMU,69444711,0,0.000970723,0.000991674,0.000893018,-0.001134984,-0.001378882,-9.817426,0,0,29.03127,1,1,1000,1000
8610,25:18.3,IMU,69444711,1,0.000793736,0.001038113,0.000826797,-0.001570393,0.000261012,-9.816705,0,0,29.03127,1,1,760,800
8663,25:18.3,IMU,69484695,0,0.000951689,0.000935833,0.000950168,-0.000157772,-0.001278271,-9.817129,0,0,29.0334,1,1,1000,1000
8664,25:18.3,IMU,69484695,1,0.001115581,0.000744339,0.000855638,-0.002911764,-0.000432504,-9.818911,0,0,29.0334,1,1,760,800
8716,25:18.3,IMU,69524679,0,0.000974832,0.001062365,0.001017563,-0.001454457,-0.000970181,-9.818083,0,0,29.03553,1,1,1000,1000
8717,25:18.3,IMU,69524679,1,0.000950732,0.000946581,0.001085812,0.000896359,-3.78E-05,-9.81847,0,0,29.03553,1,1,760,800
8818,25:18.4,IMU,69564663,0,0.000855465,0.001014332,0.000973664,-0.000888986,-0.000518194,-9.817541,0,0,29.03766,1,1,1000,1000
8819,25:18.4,IMU,69564663,1,0.001236107,0.001227402,0.000936474,-0.000632619,-0.001413277,-9.819923,0,0,29.03766,1,1,760,800
8874,25:18.4,IMU,69604647,0,0.000934304,0.000996896,0.000955897,-0.000561671,-0.001889138,-9.817495,0,0,29.03979,1,1,1000,1000
8875,25:18.4,IMU,69604647,1,0.001024737,0.001046964,0.000806231,0.000702962,-0.000378004,-9.816842,0,0,29.03979,1,1,760,800
8973,25:18.5,IMU,69644631,0,0.000932871,0.000966133,0.000956965,-0.001591472,-0.00094968,-9.816936,0,0,29.04192,1,1,1000,1000
8974,25:18.5,IMU,69644631,1,0.00097949,0.000887974,0.001038332,0.000408156,0.000482059,-9.814846,0,0,29.04192,1,1,760,800
9025,25:18.5,IMU,69684615,0,0.000974088,0.001053544,0.001001783,-0.001571837,-0.000894716,-9.817598,0,0,29.04404,1,1,1000,1000
9026,25:18.5,IMU,69684615,1,0.000863448,0.000976532,0.000926723,0.000211793,-0.002398805,-9.817563,0,0,29.04404,1,1,760,800
9078,25:18.5,IMU,69724599,0,0.001074346,0.000929932,0.001037543,0.000953622,-0.000916201,-9.81767,0,0,29.04617,1,1,1000,1000
9079,25:18.5,IMU,69724599,1,0.000822574,0.001080144,0.001018266,-0.001253432,-0.000178229,-9.81644,0,0,29.04617,1,1,760,800
9179,25:18.6,IMU,69764583,0,0.001000553,0.001048257,0.000996111,-0.002316739,-0.001145127,-9.81814,0,0,29.0483,1,1,1000,1000
9180,25:18.6,IMU,69764583,1,0.001195081,0.000854499,0.001387712,0.00040745,0.000503938,-9.818489,0,0,29.0483,1,1,760,800
9233,25:18.6,IMU,69805400,0,0.000964118,0.000977898,0.000989759,-0.000604517,-0.000666726,-9.818196,0,0,29.05048,1,1,1000,1000
9234,25:18.6,IMU,69805400,1,0.001050615,0.001085681,0.000854708,-0.002228069,-0.002907457,-9.817921,0,0,29.05042,1,1,760,800
9332,25:18.7,IMU,69845384,0,0.00095889,0.000955215,0.000950246,4.231496E-05,-0.001781789,-9.817113,0,0,29.0526,1,1,1000,1000
9333,25:18.7,IMU,69845384,1,0.000974997,0.000932911,0.001260032,0.000789657,-0.002167537,-9.817389,0,0,29.05255,1,1,760,800
9384,25:18.7,IMU,69885368,0,0.000962514,0.000914004,0.000947963,-0.001688595,-0.00135304,-9.817353,0,0,29.05473,1,1,1000,1000
9385,25:18.7,IMU,69885368,1,0.00097063,0.000845036,0.00076285,7.670626E-05,-0.00017954,-9.817459,0,0,29.05468,1,1,760,800
9438,25:18.7,IMU,69925352,0,0.000964936,0.001014663,0.000986521,-0.001065073,-0.001685247,-9.817932,0,0,29.05685,1,1,1000,1000
9439,25:18.7,IMU,69925352,1,0.001238757,0.001161498,0.001045229,-0.000779426,-0.000453121,-9.816475,0,0,29.0568,1,1,760,800
9538,25:18.8,IMU,69965336,0,0.000995966,0.000998677,0.001012571,-0.001663565,-0.000623213,-9.817562,0,0,29.05898,1,1,1000,1000
9539,25:18.8,IMU,69965336,1,0.001024384,0.000751951,0.000929648,-0.000620466,-0.00014193,-9.817257,0,0,29.05893,1,1,760,800
9593,25:18.8,IMU,70005320,0,0.001061564,0.000948246,0.000954252,-0.001388595,4.460954E-05,-9.816976,0,0,29.06111,1,1,1000,1000
9594,25:18.8,IMU,70005320,1,0.001165708,0.000856101,0.001186889,0.001080051,-0.003956184,-9.819108,0,0,29.06105,1,1,760,800
9694,25:18.9,IMU,70045304,0,0.000922101,0.001034467,0.000956208,-0.001057102,-0.00178435,-9.818815,0,0,29.06323,1,1,1000,1000
9695,25:18.9,IMU,70045304,1,0.001106137,0.001146467,0.001022974,-0.000782236,-0.000709751,-9.818289,0,0,29.06318,1,1,760,800
9746,25:18.9,IMU,70085288,0,0.000995453,0.000989097,0.000972667,-0.000523389,-0.001612081,-9.818458,0,0,29.06536,1,1,1000,1000
9747,25:18.9,IMU,70085288,1,0.000834912,0.000737399,0.000990911,-0.001136426,0.000486782,-9.815769,0,0,29.0653,1,1,760,800
9800,25:18.9,IMU,70125272,0,0.000959006,0.000989408,0.001018577,-0.001929231,-0.00132961,-9.817271,0,0,29.06748,1,1,1000,1000
9801,25:18.9,IMU,70125272,1,0.000853105,0.001034566,0.001070756,-0.003325742,-0.002339996,-9.816516,0,0,29.06743,1,1,760,800
9899,25:19.0,IMU,70165256,0,0.000940315,0.000999842,0.001065195,0.000126032,8.823739E-05,-9.816409,0,0,29.0696,1,1,1000,1000
9900,25:19.0,IMU,70165256,1,0.001047801,0.000973399,0.001011529,-0.000445539,-0.002456153,-9.818449,0,0,29.06955,1,1,760,800
9954,25:19.0,IMU,70205240,0,0.001042835,0.001025906,0.000992435,-0.000819654,-0.000931063,-9.817287,0,0,29.07173,1,1,1000,1000
9955,25:19.0,IMU,70205240,1,0.001090898,0.001024738,0.000693002,-5.04E-05,-0.002120334,-9.818808,0,0,29.07167,1,1,760,800
10053,25:19.1,IMU,70245224,0,0.000923713,0.001018304,0.001038018,-0.001213128,-0.000736129,-9.817307,0,0,29.0738,1,1,1000,1000
10054,25:19.1,IMU,70245224,1,0.000838322,0.001072226,0.001027926,-0.000767172,0.000359393,-9.817165,0,0,29.0738,1,1,760,800
10105,25:19.1,IMU,70285208,0,0.00100324,0.000999056,0.001024991,-0.001542693,-0.001246197,-9.817924,0,0,29.07592,1,1,1000,1000
10106,25:19.1,IMU,70285208,1,0.000941232,0.001172829,0.000961135,-0.003030527,0.00220307,-9.817737,0,0,29.07592,1,1,760,800
10158,25:19.1,IMU,70325192,0,0.001016324,0.000932939,0.000973576,-0.000545905,-0.001732625,-9.816999,0,0,29.07804,1,1,1000,1000
10159,25:19.1,IMU,70325192,1,0.000863595,0.000773378,0.000919991,-0.001886456,0.000953097,-9.815699,0,0,29.07804,1,1,760,800
10258,25:19.2,IMU,70365176,0,0.001080489,0.00093883,0.000996309,0.000429595,-0.001155481,-9.816781,0,0,29.08017,1,1,1000,1000
10259,25:19.2,IMU,70365176,1,0.000958562,0.001130716,0.000847316,-0.001717478,0.000182087,-9.816646,0,0,29.08017,1,1,760,800
10313,25:19.2,IMU,70405160,0,0.000984254,0.001022174,0.001016666,-0.000788722,-0.000655264,-9.81711,0,0,29.08229,1,1,1000,1000
10314,25:19.2,IMU,70405160,1,0.000753061,0.001130096,0.000808222,-0.002714582,-0.001708608,-9.818889,0,0,29.08229,1,1,760,800
10415,25:19.3,IMU,70445144,0,0.000968035,0.000951417,0.000979807,-0.000490045,-0.000636101,-9.817465,0,0,29.08441,1,1,1000,1000
10416,25:19.3,IMU,70445144,1,0.001176249,0.001135601,0.001109479,-0.000229105,-0.001734158,-9.816051,0,0,29.08441,1,1,760,800
10470,25:19.3,IMU,70485128,0,0.000945454,0.000986157,0.001032725,-0.001928091,-0.001205516,-9.817666,0,0,29.08653,1,1,1000,1000
10471,25:19.3,IMU,70485128,1,0.000728111,0.001061017,0.000873221,-0.001095064,-0.001533293,-9.816136,0,0,29.08653,1,1,760,800
10523,25:19.3,IMU,70525112,0,0.001012754,0.000988139,0.001007085,-0.001044994,-0.001749899,-9.817043,0,0,29.08866,1,1,1000,1000
10524,25:19.3,IMU,70525112,1,0.000677955,0.000895338,0.001211785,-0.002286752,-0.000795939,-9.820707,0,0,29.08866,1,1,760,800
10624,25:19.4,IMU,70565096,0,0.000996008,0.000900334,0.000886231,-0.001313987,-0.000821065,-9.817026,0,0,29.09078,1,1,1000,1000
10625,25:19.4,IMU,70565096,1,0.001075935,0.001098982,0.00081173,-0.000840627,0.000932837,-9.816763,0,0,29.09078,1,1,760,800
10679,25:19.4,IMU,70605080,0,0.001016478,0.001042901,0.000957612,-0.000612291,-0.000735477,-9.816699,0,0,29.0929,1,1,1000,1000
10680,25:19.4,IMU,70605080,1,0.001133258,0.000709776,0.001100659,-0.000550772,-0.002212849,-9.815657,0,0,29.0929,1,1,760,800
10780,25:19.5,IMU,70645064,0,0.001001632,0.00097325,0.00101986,-0.000182303,-0.000866908,-9.816705,0,0,29.09507,1,1,1000,1000
10781,25:19.5,IMU,70645064,1,0.001093423,0.001198799,0.001258152,-0.000725038,-0.001175263,-9.81492,0,0,29.09507,1,1,760,800
10832,25:19.5,IMU,70685048,0,0.001048389,0.000985587,0.00100246,-0.000679103,-0.001423819,-9.816919,0,0,29.09719,1,1,1000,1000
10833,25:19.5,IMU,70685048,1,0.001069499,0.00079712,0.000813875,-0.000194671,-0.002021794,-9.818438,0,0,29.09719,1,1,760,800
10885,25:19.5,IMU,70725032,0,0.000929676,0.000952048,0.000953003,-0.000995137,-0.000662599,-9.816982,0,0,29.09931,1,1,1000,1000
10886,25:19.5,IMU,70725032,1,0.001003421,0.001219961,0.001020905,0.001123609,-0.004088354,-9.815496,0,0,29.09931,1,1,760,800
10988,25:19.6,IMU,70765016,0,0.001032035,0.001001807,0.00105069,-0.000653972,-0.000622103,-9.816675,0,0,29.10143,1,1,1000,1000
10989,25:19.6,IMU,70765016,1,0.000975231,0.000740269,0.000920634,-0.000804257,-0.00220549,-9.816694,0,0,29.10143,1,1,760,800
11043,25:19.6,IMU,70805000,0,0.000970538,0.001027659,0.001004442,-0.001008306,-0.000157994,-9.817751,0,0,29.10355,1,1,1000,1000
11044,25:19.6,IMU,70805000,1,0.001076308,0.000941385,0.001000034,-0.00234197,-5.83E-05,-9.819242,0,0,29.10355,1,1,760,800
11141,25:19.7,IMU,70844984,0,0.00093671,0.000986737,0.001008351,-0.000460222,-0.001930656,-9.818484,0,0,29.10562,1,1,1000,1000
11142,25:19.7,IMU,70844984,1,0.000952204,0.001017143,0.000828576,-0.000782293,-0.000272032,-9.816899,0,0,29.10562,1,1,760,800
11193,25:19.7,IMU,70884968,0,0.00100497,0.000997212,0.00103305,-0.00162563,-0.001423091,-9.817518,0,0,29.10774,1,1,1000,1000
11194,25:19.7,IMU,70884968,1,0.001058958,0.001051077,0.001139353,-0.001522878,0.001154625,-9.819725,0,0,29.10774,1,1,760,800
11247,25:19.7,IMU,70924952,0,0.00091102,0.000909449,0.001011642,-0.000837932,-0.001560259,-9.817715,0,0,29.10986,1,1,1000,1000
11248,25:19.7,IMU,70924952,1,0.001033733,0.000945293,0.000728977,-0.000651448,-0.002974956,-9.819017,0,0,29.10986,1,1,760,800
11347,25:19.8,IMU,70964936,0,0.001075917,0.000922066,0.000946029,-0.000764152,0.000308482,-9.818536,0,0,29.11198,1,1,1000,1000
11348,25:19.8,IMU,70964936,1,0.000746015,0.001095759,0.001185691,-0.000184188,-0.000631351,-9.814966,0,0,29.11198,1,1,760,800
11402,25:19.8,IMU,71004920,0,0.000975977,0.000975134,0.001035475,-0.000711659,-0.001174003,-9.818024,0,0,29.11409,1,1,1000,1000
11403,25:19.8,IMU,71004920,1,0.001132629,0.000862632,0.000940028,-0.001795133,-0.001887449,-9.815817,0,0,29.11409,1,1,760,800
11503,25:19.9,IMU,71044904,0,0.001023635,0.000954749,0.000970633,-0.001253902,-0.001667269,-9.817162,0,0,29.11621,1,1,1000,1000
11504,25:19.9,IMU,71044904,1,0.001050975,0.001151183,0.000789159,0.000113293,-0.000926804,-9.816855,0,0,29.11621,1,1,760,800
11554,25:19.9,IMU,71084888,0,0.001003647,0.0009779,0.001031231,0.000609035,-0.001253098,-9.818247,0,0,29.11833,1,1,1000,1000
11555,25:19.9,IMU,71084888,1,0.001153584,0.000975677,0.000828491,-0.000493454,-0.00095009,-9.816713,0,0,29.11833,1,1,760,800
11608,25:19.9,IMU,71124872,0,0.000930502,0.00106127,0.000969132,-0.001713258,-0.001023347,-9.817781,0,0,29.12045,1,1,1000,1000
11609,25:19.9,IMU,71124872,1,0.000767932,0.000825973,0.000966054,0.001467685,-0.001733911,-9.816682,0,0,29.12045,1,1,760,800
11708,25:20.0,IMU,71164856,0,0.00098095,0.001040762,0.000936644,-0.000814116,-0.001663598,-9.816539,0,0,29.12256,1,1,1000,1000
11709,25:20.0,IMU,71164856,1,0.001148059,0.001007503,0.000994494,-0.001489385,-0.001272538,-9.815472,0,0,29.12256,1,1,760,800
11763,25:20.0,IMU,71204840,0,0.000990916,0.001006566,0.001005083,-0.000492524,-0.001487033,-9.817696,0,0,29.12468,1,1,1000,1000
11764,25:20.0,IMU,71204840,1,0.000824884,0.000688908,0.000938672,0.000104527,-0.001889631,-9.819297,0,0,29.12468,1,1,760,800
11864,25:20.1,IMU,71244824,0,0.001006438,0.001009325,0.000959786,-0.000868373,-0.001153315,-9.81862,0,0,29.1268,1,1,1000,1000
11865,25:20.1,IMU,71244824,1,0.00102804,0.001261647,0.00118564,-0.001501046,-0.000679817,-9.816727,0,0,29.1268,1,1,760,800
11916,25:20.1,IMU,71284808,0,0.000935503,0.001041097,0.000960962,-0.001446667,-0.000262097,-9.816162,0,0,29.12891,1,1,1000,1000
11917,25:20.1,IMU,71284808,1,0.001003502,0.000889578,0.000942958,0.000154525,-0.001856018,-9.817997,0,0,29.12891,1,1,760,800
11968,25:20.1,IMU,71324792,0,0.00098421,0.000996921,0.001049798,-0.00141241,-0.002319508,-9.817782,0,0,29.13103,1,1,1000,1000
11969,25:20.1,IMU,71324792,1,0.000765137,0.000925839,0.000752389,-0.002717524,0.000220905,-9.81891,0,0,29.13103,1,1,760,800
12068,25:20.2,IMU,71364776,0,0.000967317,0.001005586,0.001018487,-0.001406876,-0.001182575,-9.818125,0,0,29.13315,1,1,1000,1000
12069,25:20.2,IMU,71364776,1,0.001145706,0.000588517,0.000873741,-0.001833278,-0.000301245,-9.815372,0,0,29.13315,1,1,760,800
12123,25:20.2,IMU,71404760,0,0.001023676,0.001026209,0.001008609,-0.001088007,-0.000126169,-9.817649,0,0,29.13526,1,1,1000,1000
12124,25:20.2,IMU,71404760,1,0.001047226,0.001251297,0.000855183,-0.000693964,-0.001798898,-9.818787,0,0,29.13526,1,1,760,800
12225,25:20.3,IMU,71444744,0,0.001041226,0.001065843,0.001056539,-0.000898972,-0.001341418,-9.816954,0,0,29.13738,1,1,1000,1000
12226,25:20.3,IMU,71444744,1,0.001119879,0.001022001,0.001106465,-0.001781712,-0.001359913,-9.81668,0,0,29.13738,1,1,760,800
12279,25:20.3,IMU,71484728,0,0.001003327,0.000984251,0.001023789,-0.000685856,-0.00114339,-9.818384,0,0,29.13949,1,1,1000,1000
12280,25:20.3,IMU,71484728,1,0.001088764,0.001027241,0.001057796,-0.001907436,0.000434354,-9.817612,0,0,29.13949,1,1,760,800
12333,25:20.3,IMU,71524712,0,0.001008704,0.001046168,0.001040532,-0.001514249,-0.000849099,-9.817447,0,0,29.14161,1,1,1000,1000
12334,25:20.3,IMU,71524712,1,0.000846198,0.000891756,0.000896844,-0.002962064,-0.003113395,-9.819196,0,0,29.14161,1,1,760,800
12435,25:20.4,IMU,71564696,0,0.001068642,0.000992575,0.001008556,-0.001281043,-0.001712495,-9.816056,0,0,29.14372,1,1,1000,1000
12436,25:20.4,IMU,71564696,1,0.00113837,0.000904935,0.001010277,0.000372382,-0.001021932,-9.815823,0,0,29.14372,1,1,760,800
12490,25:20.4,IMU,71604680,0,0.000945942,0.001046025,0.001059913,-0.000515856,-0.001554914,-9.817363,0,0,29.14583,1,1,1000,1000
12491,25:20.4,IMU,71604680,1,0.001174914,0.00084075,0.001272851,-0.001501312,-0.000471818,-9.81693,0,0,29.14583,1,1,760,800
12590,25:20.5,IMU,71644664,0,0.00093439,0.001052031,0.000941297,-0.001846964,-0.000568932,-9.818808,0,0,29.14795,1,1,1000,1000
12591,25:20.5,IMU,71644664,1,0.000968155,0.000909317,0.000982622,0.000177631,-0.001955447,-9.819199,0,0,29.14795,1,1,760,800
12642,25:20.5,IMU,71684648,0,0.000986811,0.000962576,0.000990858,0.000770789,-0.001258152,-9.817484,0,0,29.15006,1,1,1000,1000
12643,25:20.5,IMU,71684648,1,0.001105742,0.000796112,0.000788031,0.003400679,-0.001432175,-9.817225,0,0,29.15006,1,1,760,800
12695,25:20.5,IMU,71724632,0,0.000916573,0.001029584,0.001011516,-9.52E-05,-0.001957454,-9.817754,0,0,29.15218,1,1,1000,1000
12696,25:20.5,IMU,71724632,1,0.000777201,0.001009422,0.001413517,0.000299606,-0.002000508,-9.818101,0,0,29.15218,1,1,760,800
12796,25:20.6,IMU,71764616,0,0.000972314,0.001027074,0.001021679,-0.001151543,-0.001854622,-9.817934,0,0,29.15429,1,1,1000,1000
12797,25:20.6,IMU,71764616,1,0.000764029,0.000997345,0.001072999,-0.001557419,0.000135535,-9.816313,0,0,29.15429,1,1,760,800
12851,25:20.6,IMU,71804600,0,0.001025039,0.000920586,0.001033644,-0.000787374,-0.000467562,-9.816795,0,0,29.1564,1,1,1000,1000
12852,25:20.6,IMU,71804600,1,0.001005674,0.000949809,0.001094034,-0.000662819,0.000146588,-9.817433,0,0,29.1564,1,1,760,800
12950,25:20.7,IMU,71844584,0,0.001017882,0.000953666,0.001017006,-0.001650125,-0.00030897,-9.816917,0,0,29.15851,1,1,1000,1000
12951,25:20.7,IMU,71844584,1,0.00131337,0.000809618,0.001085829,0.000672943,-0.001856685,-9.817446,0,0,29.15851,1,1,760,800
13002,25:20.7,IMU,71885401,0,0.001009407,0.000984768,0.001025997,-0.000530941,-0.00234182,-9.817303,0,0,29.16068,1,1,1000,1000
13003,25:20.7,IMU,71885401,1,0.000945521,0.000724878,0.000966849,-0.002145488,-0.000617729,-9.817966,0,0,29.16063,1,1,760,800
13055,25:20.7,IMU,71925385,0,0.001058025,0.00106318,0.00102294,-0.000663167,0.000650594,-9.8169,0,0,29.16279,1,1,1000,1000
13056,25:20.7,IMU,71925385,1,0.001051818,0.000559955,0.000805686,-0.000435042,-0.001030157,-9.815992,0,0,29.16274,1,1,760,800
13156,25:20.8,IMU,71965369,0,0.000964436,0.000972176,0.00100431,-0.000495067,-0.000923421,-9.816919,0,0,29.1649,1,1,1000,1000
13157,25:20.8,IMU,71965369,1,0.001008933,0.000977109,0.001093397,-0.00125387,0.001766607,-9.815403,0,0,29.16485,1,1,760,800
13211,25:20.8,IMU,72005353,0,0.00101695,0.000952297,0.001056604,-0.000743693,-0.000579382,-9.817694,0,0,29.16701,1,1,1000,1000
13212,25:20.8,IMU,72005353,1,0.001224576,0.001080231,0.001094613,-0.000341985,-0.001184286,-9.815414,0,0,29.16696,1,1,760,800
13311,25:20.9,IMU,72045337,0,0.001031408,0.001031988,0.001039329,0.000219929,-0.001176341,-9.817833,0,0,29.16912,1,1,1000,1000
13312,25:20.9,IMU,72045337,1,0.001162529,0.001078154,0.00107399,0.000378983,-0.000449277,-9.816849,0,0,29.16907,1,1,760,800
13363,25:20.9,IMU,72085321,0,0.000960223,0.001077591,0.00104633,-0.000854315,-0.000949666,-9.817953,0,0,29.17123,1,1,1000,1000
13364,25:20.9,IMU,72085321,1,0.001009171,0.000906135,0.001214513,0.000357345,-0.00057185,-9.818512,0,0,29.17118,1,1,760,800
13416,25:20.9,IMU,72125305,0,0.001014018,0.001003173,0.001024574,-0.0008493,-0.001327881,-9.817242,0,0,29.17334,1,1,1000,1000
13417,25:20.9,IMU,72125305,1,0.001052887,0.001017498,0.001036726,-0.002815733,-0.002642189,-9.817953,0,0,29.17329,1,1,760,800
13517,25:21.0,IMU,72165289,0,0.000935069,0.000959368,0.000946856,-0.000509785,-0.002166474,-9.817888,0,0,29.17545,1,1,1000,1000
13518,25:21.0,IMU,72165289,1,0.000940779,0.000764746,0.000822281,-0.002146512,-0.002127148,-9.816185,0,0,29.1754,1,1,760,800
13572,25:21.0,IMU,72205273,0,0.000971778,0.00095835,0.001065574,-0.000406038,-0.000444035,-9.817592,0,0,29.17756,1,1,1000,1000
13573,25:21.0,IMU,72205273,1,0.000860354,0.000986593,0.001001883,1.196058E-05,-0.000826225,-9.817411,0,0,29.17751,1,1,760,800
13671,25:21.1,IMU,72245257,0,0.000986756,0.001016376,0.000970394,-0.000430623,-0.001786992,-9.81653,0,0,29.17967,1,1,1000,1000
13672,25:21.1,IMU,72245257,1,0.001171107,0.000826138,0.000905621,0.000497579,-9.98E-05,-9.817947,0,0,29.17962,1,1,760,800
13723,25:21.1,IMU,72285241,0,0.001052936,0.000995545,0.001041266,-0.001297516,-0.001349727,-9.817732,0,0,29.18178,1,1,1000,1000
13724,25:21.1,IMU,72285241,1,0.001290011,0.000935254,0.001021853,-0.000548514,-0.000536741,-9.818983,0,0,29.18173,1,1,760,800
13775,25:21.1,IMU,72325225,0,0.001003622,0.001090622,0.001068999,-0.001830514,-0.001894457,-9.817573,0,0,29.18384,1,1,1000,1000
13776,25:21.1,IMU,72325225,1,0.001053771,0.000870328,0.001075632,0.000739173,0.001689572,-9.816722,0,0,29.18384,1,1,760,800
13875,25:21.2,IMU,72365209,0,0.001019092,0.000952295,0.001081981,-0.000629854,-0.001821569,-9.818626,0,0,29.18595,1,1,1000,1000
13876,25:21.2,IMU,72365209,1,0.001123867,0.000818968,0.000995807,-0.001386337,-0.002647656,-9.818334,0,0,29.18595,1,1,760,800
13930,25:21.2,IMU,72405193,0,0.000983429,0.001014129,0.000970717,-0.001659311,-0.001544305,-9.817802,0,0,29.18806,1,1,1000,1000
13931,25:21.2,IMU,72405193,1,0.000987021,0.001149265,0.001284409,-0.000629666,0.00111353,-9.818415,0,0,29.18806,1,1,760,800
14031,25:21.3,IMU,72445177,0,0.001023711,0.001055693,0.001021263,-0.000368243,-0.001646632,-9.817908,0,0,29.19016,1,1,1000,1000
14032,25:21.3,IMU,72445177,1,0.00079033,0.001245445,0.000953085,0.000870349,0.001293002,-9.817572,0,0,29.19016,1,1,760,800
14087,25:21.3,IMU,72485161,0,0.000998508,0.000971617,0.000989786,-0.001507737,-0.001552729,-9.817957,0,0,29.19227,1,1,1000,1000
14088,25:21.3,IMU,72485161,1,0.000870371,0.001033041,0.000818881,-0.002961949,-0.001523872,-9.81619,0,0,29.19227,1,1,760,800
14140,25:21.3,IMU,72525145,0,0.001041034,0.001036394,0.001016773,-0.000728327,-0.000340905,-9.816719,0,0,29.19438,1,1,1000,1000
14141,25:21.3,IMU,72525145,1,0.000928617,0.000941793,0.001052876,-0.001450863,-0.000576621,-9.818505,0,0,29.19438,1,1,760,800
14241,25:21.4,IMU,72565129,0,0.001018763,0.001010349,0.001023573,-0.000234377,-0.001591363,-9.817465,0,0,29.19649,1,1,1000,1000
14242,25:21.4,IMU,72565129,1,0.000675784,0.000964624,0.000980177,-0.002088413,-0.002324511,-9.819786,0,0,29.19649,1,1,760,800
14296,25:21.4,IMU,72605113,0,0.001004816,0.000953373,0.001014237,-0.000579778,-0.000491574,-9.817278,0,0,29.19859,1,1,1000,1000
14297,25:21.4,IMU,72605113,1,0.001240012,0.000950763,0.000964508,-0.002041097,-0.000154868,-9.815563,0,0,29.19859,1,1,760,800
14396,25:21.5,IMU,72645097,0,0.00105183,0.001071296,0.000988863,-0.000352363,-0.00169572,-9.817787,0,0,29.2007,1,1,1000,1000
14397,25:21.5,IMU,72645097,1,0.001072251,0.00102216,0.001096162,-0.001546348,0.000240744,-9.818638,0,0,29.2007,1,1,760,800
14449,25:21.5,IMU,72685081,0,0.001057063,0.000972555,0.001085929,-0.000335695,-0.002000359,-9.818048,0,0,29.20281,1,1,1000,1000
14450,25:21.5,IMU,72685081,1,0.000970371,0.001115333,0.00096005,0.000955758,-0.001383134,-9.820755,0,0,29.20281,1,1,760,800
14502,25:21.5,IMU,72725065,0,0.001027748,0.000978381,0.000997667,-0.001448042,-0.000305805,-9.817809,0,0,29.20497,1,1,1000,1000
14503,25:21.5,IMU,72725065,1,0.000868917,0.001214023,0.000891578,-0.001300027,-0.001394536,-9.817287,0,0,29.20497,1,1,760,800
14603,25:21.6,IMU,72765049,0,0.001032532,0.001025115,0.001082626,-0.000509348,-0.001985536,-9.817758,0,0,29.20707,1,1,1000,1000
14604,25:21.6,IMU,72765049,1,0.000884711,0.001134173,0.001008628,3.714508E-05,-0.002235953,-9.818844,0,0,29.20707,1,1,760,800
14658,25:21.6,IMU,72805033,0,0.000961766,0.001056761,0.000968726,-0.000726087,-7.19E-05,-9.817019,0,0,29.20918,1,1,1000,1000
14659,25:21.6,IMU,72805033,1,0.001345848,0.001022483,0.000989956,-0.000169938,-0.002201048,-9.819367,0,0,29.20918,1,1,760,800
14757,25:21.7,IMU,72845017,0,0.00107216,0.001049349,0.001032503,-0.001036642,-0.001646829,-9.816879,0,0,29.21128,1,1,1000,1000
14758,25:21.7,IMU,72845017,1,0.001136267,0.000908036,0.001096956,-0.001036103,-0.00075607,-9.816881,0,0,29.21128,1,1,760,800
14809,25:21.7,IMU,72885001,0,0.001059286,0.001033358,0.001014078,-0.002055194,-0.001215984,-9.816868,0,0,29.21339,1,1,1000,1000
14810,25:21.7,IMU,72885001,1,0.001080945,0.000921674,0.000982805,-0.001455398,-0.002568148,-9.816296,0,0,29.21339,1,1,760,800
14862,25:21.7,IMU,72924985,0,0.000992688,0.001030901,0.00101192,-0.001549995,-0.002312504,-9.815443,0,0,29.21544,1,1,1000,1000
14863,25:21.7,IMU,72924985,1,0.001073767,0.001089932,0.001032608,0.001258925,-0.001246381,-9.815811,0,0,29.21544,1,1,760,800
14962,25:21.8,IMU,72964969,0,0.001039171,0.001053678,0.001053982,-0.0008145,-0.000734072,-9.817658,0,0,29.21754,1,1,1000,1000
14963,25:21.8,IMU,72964969,1,0.000960282,0.00079399,0.001195012,-0.003603749,-0.001681137,-9.818172,0,0,29.21754,1,1,760,800
15017,25:21.8,IMU,73004953,0,0.001090964,0.001068706,0.000967501,-0.001058019,-0.001010107,-9.816863,0,0,29.21965,1,1,1000,1000
15018,25:21.8,IMU,73004953,1,0.000923413,0.001001847,0.001005161,-0.001194379,-0.0005973,-9.818134,0,0,29.21965,1,1,760,800
15118,25:21.9,IMU,73044937,0,0.001073417,0.001134254,0.00099413,-0.000863059,-0.001752174,-9.817211,0,0,29.22175,1,1,1000,1000
15119,25:21.9,IMU,73044937,1,0.001038898,0.000958757,0.001183784,-0.001869292,-0.002174267,-9.818609,0,0,29.22175,1,1,760,800
15172,25:21.9,IMU,73084921,0,0.0009857,0.001016014,0.001052308,-0.000548627,-0.000194736,-9.817569,0,0,29.22386,1,1,1000,1000
15173,25:21.9,IMU,73084921,1,0.00102094,0.001050291,0.000866031,-0.000619022,-0.001819614,-9.817698,0,0,29.22386,1,1,760,800
15225,25:21.9,IMU,73124905,0,0.001000076,0.001021845,0.00103009,-0.000574866,-0.001097688,-9.816726,0,0,29.22596,1,1,1000,1000
15226,25:21.9,IMU,73124905,1,0.00115574,0.00099535,0.001053877,-0.001800679,0.000133054,-9.816792,0,0,29.22596,1,1,760,800
15326,25:22.0,IMU,73164889,0,0.001002114,0.001030547,0.001103734,-0.001112408,-0.001052746,-9.817324,0,0,29.22806,1,1,1000,1000
15327,25:22.0,IMU,73164889,1,0.001064319,0.001151766,0.001039721,0.001424203,-0.001004321,-9.817432,0,0,29.22806,1,1,760,800
15381,25:22.0,IMU,73204873,0,0.001047221,0.001011958,0.000998571,-0.000908398,-0.000525529,-9.816986,0,0,29.23017,1,1,1000,1000
15382,25:22.0,IMU,73204873,1,0.001058261,0.001141887,0.001095519,-0.004198373,-0.000239501,-9.817589,0,0,29.23017,1,1,760,800
15479,25:22.1,IMU,73244857,0,0.001007731,0.001024687,0.000996807,-0.000712535,-0.000986692,-9.817484,0,0,29.23227,1,1,1000,1000
15480,25:22.1,IMU,73244857,1,0.001021891,0.000978254,0.000997843,-0.001270541,-0.001734728,-9.815443,0,0,29.23227,1,1,760,800
15531,25:22.1,IMU,73284841,0,0.001021342,0.001018544,0.00106226,0.01439419,-0.000915867,-9.817773,0,0,29.23437,1,1,1000,1000
15532,25:22.1,IMU,73284841,1,0.001007277,0.000888714,0.001059502,0.01856894,-0.00196343,-9.815979,0,0,29.23437,1,1,760,800
15584,25:22.1,IMU,73324825,0,0.001029007,0.001013917,0.001065609,0.01532125,0.000629202,-9.817571,0,0,29.23647,1,1,1000,1000
15585,25:22.1,IMU,73324825,1,0.000918811,0.000911336,0.000980501,0.01392261,0.001877391,-9.817787,0,0,29.23647,1,1,760,800
15684,25:22.2,IMU,73364809,0,0.001032572,0.001001136,0.001018338,0.01144126,0.000793291,-9.818111,0,0,29.23857,1,1,1000,1000
15685,25:22.2,IMU,73364809,1,0.001013148,0.001014084,0.000938786,0.0113865,0.000432989,-9.817787,0,0,29.23857,1,1,760,800
15739,25:22.2,IMU,73404793,0,0.001004159,0.001000889,0.00104163,0.004813846,-0.000388969,-9.815989,0,0,29.24067,1,1,1000,1000
15740,25:22.2,IMU,73404793,1,0.000885229,0.001187843,0.001092716,0.00761678,-0.001233969,-9.817364,0,0,29.24067,1,1,760,800
15840,25:22.3,IMU,73444777,0,0.00102372,0.001076676,0.001048622,0.001026507,-0.000605864,-9.817675,0,0,29.24278,1,1,1000,1000
15841,25:22.3,IMU,73444777,1,0.000914947,0.001056999,0.000895735,0.000218169,-0.002918985,-9.81745,0,0,29.24278,1,1,760,800
15894,25:22.3,IMU,73484761,0,0.001007981,0.001006901,0.001011873,-0.00291808,-3.27E-05,-9.817017,0,0,29.24488,1,1,1000,1000
15895,25:22.3,IMU,73484761,1,0.000979629,0.00114345,0.001011681,-0.002509583,-0.004415372,-9.817149,0,0,29.24488,1,1,760,800
15948,25:22.3,IMU,73524745,0,0.001080345,0.001035131,0.00101949,-0.005384536,-0.001669264,-9.816769,0,0,29.24698,1,1,1000,1000
15949,25:22.3,IMU,73524745,1,0.00105041,0.000875217,0.000981733,-0.004220669,0.002002061,-9.818429,0,0,29.24698,1,1,760,800
16049,25:22.4,IMU,73564729,0,0.00104648,0.001040392,0.001048802,-0.006743682,-0.001790203,-9.81752,0,0,29.24908,1,1,1000,1000
16050,25:22.4,IMU,73564729,1,0.000971434,0.001223724,0.000935706,-0.005902799,-0.001604287,-9.815915,0,0,29.24908,1,1,760,800
16104,25:22.4,IMU,73604713,0,0.001021054,0.001030709,0.001048384,-0.007688707,-0.002048382,-9.817419,0,0,29.25118,1,1,1000,1000
16105,25:22.4,IMU,73604713,1,0.001176328,0.001021056,0.001050381,-0.006392599,-0.004437514,-9.816081,0,0,29.25118,1,1,760,800
16204,25:22.5,IMU,73644697,0,0.001031322,0.001045465,0.001060499,-0.006451621,-0.002003678,-9.816362,0,0,29.25328,1,1,1000,1000
16205,25:22.5,IMU,73644697,1,0.001089845,0.000980008,0.001050442,-0.008732831,-0.002126264,-9.816412,0,0,29.25328,1,1,760,800
16257,25:22.5,IMU,73684681,0,0.000992911,0.000997584,0.00095118,-0.004623446,-0.00097285,-9.816451,0,0,29.25538,1,1,1000,1000
16258,25:22.5,IMU,73684681,1,0.001141213,0.000931562,0.001176028,-0.008087206,0.001092387,-9.817242,0,0,29.25538,1,1,760,800
16310,25:22.5,IMU,73724665,0,0.001028415,0.001088509,0.001073761,-0.00501057,-0.00097151,-9.817849,0,0,29.25748,1,1,1000,1000
16311,25:22.5,IMU,73724665,1,0.001124713,0.001033455,0.00102716,-0.006530043,-0.001517543,-9.817056,0,0,29.25748,1,1,760,800
16411,25:22.6,IMU,73764649,0,0.000980067,0.001037987,0.000993129,-0.003532159,-0.001198647,-9.81749,0,0,29.25957,1,1,1000,1000
16412,25:22.6,IMU,73764649,1,0.001058411,0.000888146,0.001070269,-0.004446322,3.177985E-06,-9.818241,0,0,29.25957,1,1,760,800
16466,25:22.6,IMU,73804633,0,0.001018946,0.001083806,0.001016408,-0.004153247,-0.000960869,-9.817266,0,0,29.26167,1,1,1000,1000
16467,25:22.6,IMU,73804633,1,0.0010523,0.001081745,0.001065124,-0.00085168,-0.002123882,-9.818477,0,0,29.26167,1,1,760,800
16565,25:22.7,IMU,73844617,0,0.0010317,0.00108428,0.001070627,-0.000884322,-0.000596882,-9.81776,0,0,29.26377,1,1,1000,1000
16566,25:22.7,IMU,73844617,1,0.001080601,0.001088694,0.001137997,-0.004840259,0.00140213,-9.815883,0,0,29.26377,1,1,760,800
16617,25:22.7,IMU,73884601,0,0.001008271,0.000993999,0.001069585,-0.000586245,-0.000928735,-9.818736,0,0,29.26587,1,1,1000,1000
16618,25:22.7,IMU,73884601,1,0.001127443,0.000995048,0.001035474,-0.001271629,-0.002079738,-9.815426,0,0,29.26587,1,1,760,800
16670,25:22.7,IMU,73924585,0,0.001074907,0.001047779,0.001051894,0.000320728,-0.000728945,-9.816572,0,0,29.26797,1,1,1000,1000
16671,25:22.7,IMU,73924585,1,0.00106488,0.00102635,0.001087116,-0.003001025,0.002335503,-9.819109,0,0,29.26797,1,1,760,800
16770,25:22.8,IMU,73965402,0,0.001048754,0.001065944,0.001059684,-0.001519182,-0.002666998,-9.820637,0,0,29.27012,1,1,1000,1000
16771,25:22.8,IMU,73965402,1,0.000975065,0.001024273,0.001131628,0.002015137,0.000840714,-9.821835,0,0,29.27007,1,1,760,800
16826,25:22.8,IMU,74005386,0,0.001031192,0.001031612,0.001040031,0.001150515,-0.000510756,-10.28249,0,0,29.27221,1,1,1000,1000
16827,25:22.8,IMU,74005386,1,0.001131271,0.001112026,0.001062319,0.001178995,-0.001167404,-10.27856,0,0,29.27216,1,1,760,800
16932,25:22.9,IMU,74045370,0,0.000978588,0.001044399,0.001063119,-0.000509135,-0.000438659,-10.48103,0,0,29.27431,1,1,1000,1000
16933,25:22.9,IMU,74045370,1,0.001059776,0.001018414,0.001085719,0.000596151,0.000591633,-10.48577,0,0,29.27426,1,1,760,800
16983,25:22.9,IMU,74085354,0,0.001069592,0.001064944,0.001024009,-0.003723301,-0.001129792,-10.36453,0,0,29.27641,1,1,1000,1000
16984,25:22.9,IMU,74085354,1,0.001158965,0.000913673,0.001088373,-0.003527889,0.001620265,-10.36678,0,0,29.27636,1,1,760,800
17036,25:22.9,IMU,74125338,0,0.001010817,0.001045418,0.001044156,-0.003622962,-0.000967273,-10.38453,0,0,29.27851,1,1,1000,1000
17037,25:22.9,IMU,74125338,1,0.001016677,0.001031332,0.001009723,-0.004667641,-0.001865766,-10.38505,0,0,29.27845,1,1,760,800
17137,25:23.0,IMU,74165322,0,0.001028686,0.001049816,0.001043201,-0.003566619,-0.001635115,-10.40146,0,0,29.2806,1,1,1000,1000
17138,25:23.0,IMU,74165322,1,0.001215429,0.000932925,0.00100417,-0.002992597,-0.000616784,-10.4042,0,0,29.28055,1,1,760,800
17192,25:23.0,IMU,74205306,0,0.001070638,0.001112115,0.000994864,-0.001769657,-0.000707237,-10.37692,0,0,29.2827,1,1,1000,1000
17193,25:23.0,IMU,74205306,1,0.000945713,0.001010206,0.00087252,-0.003764424,0.001629289,-10.37985,0,0,29.28264,1,1,760,800
17290,25:23.1,IMU,74245290,0,0.00100963,0.001042616,0.001070565,-0.002550514,-0.002128394,-10.35309,0,0,29.28479,1,1,1000,1000
17291,25:23.1,IMU,74245290,1,0.001078882,0.001062256,0.000978453,-0.000922761,-0.000641134,-10.35647,0,0,29.28474,1,1,760,800
17342,25:23.1,IMU,74285274,0,0.001032542,0.001049744,0.001059245,-0.001430796,-0.001956007,-10.34369,0,0,29.28689,1,1,1000,1000
17343,25:23.1,IMU,74285274,1,0.001171486,0.001087755,0.001082796,0.000628994,-0.002179676,-10.34601,0,0,29.28683,1,1,760,800
17395,25:23.1,IMU,74325258,0,0.000993521,0.001024771,0.001070092,-0.000107448,-0.001147666,-10.34133,0,0,29.28898,1,1,1000,1000
17396,25:23.1,IMU,74325258,1,0.001055655,0.000946654,0.001224055,-0.000197329,-0.001733287,-10.34605,0,0,29.28893,1,1,760,800
17495,25:23.2,IMU,74365242,0,0.001005345,0.001050199,0.001075704,0.000418616,-0.001270812,-10.34873,0,0,29.29108,1,1,1000,1000
17496,25:23.2,IMU,74365242,1,0.000951126,0.001140705,0.00100022,0.000434451,-0.00232874,-10.35317,0,0,29.29102,1,1,760,800
17550,25:23.2,IMU,74405226,0,0.001047414,0.001046974,0.001035073,0.00115704,-0.00101442,-10.36413,0,0,29.29312,1,1,1000,1000
17551,25:23.2,IMU,74405226,1,0.001046386,0.001203424,0.001107618,0.00025462,-0.000995727,-10.36682,0,0,29.29312,1,1,760,800
17650,25:23.3,IMU,74445210,0,0.001034596,0.001041182,0.001075878,0.000185493,-0.00049836,-10.37972,0,0,29.29521,1,1,1000,1000
17651,25:23.3,IMU,74445210,1,0.000954004,0.000830925,0.000876225,0.000792274,-0.002322729,-10.38043,0,0,29.29521,1,1,760,800
17704,25:23.3,IMU,74485194,0,0.001041189,0.001083626,0.001072185,0.00137442,-0.000474863,-10.39478,0,0,29.29731,1,1,1000,1000
17705,25:23.3,IMU,74485194,1,0.00120872,0.001041829,0.001050099,0.001357149,-0.001051999,-10.39797,0,0,29.29731,1,1,760,800
17758,25:23.3,IMU,74525178,0,0.001034126,0.001087226,0.001025491,0.000486571,-7.22E-05,-10.41116,0,0,29.2994,1,1,1000,1000
17759,25:23.3,IMU,74525178,1,0.001102361,0.001011448,0.000939536,0.002850642,-0.000649141,-10.41271,0,0,29.2994,1,1,760,800
17860,25:23.4,IMU,74565162,0,0.001046206,0.001003418,0.001096028,0.001149251,0.000152575,-10.42337,0,0,29.30149,1,1,1000,1000
17861,25:23.4,IMU,74565162,1,0.000972853,0.001031928,0.000836355,0.001270567,-0.00187698,-10.42475,0,0,29.30149,1,1,760,800
17915,25:23.4,IMU,74605146,0,0.00106729,0.00105531,0.000973781,0.000794507,-0.001661684,-10.44135,0,0,29.30359,1,1,1000,1000
17916,25:23.4,IMU,74605146,1,0.001283258,0.001102645,0.001092005,0.002896137,-0.000734332,-10.44542,0,0,29.30359,1,1,760,800
18014,25:23.5,IMU,74645130,0,-0.02131866,-0.01915207,0.001120087,0.01715839,0.000789621,-11.82154,0,0,29.30568,1,1,1000,1000
18015,25:23.5,IMU,74645130,1,-0.02139745,-0.01927683,0.001126496,0.01651483,0.00153438,-11.80818,0,0,29.30568,1,1,760,800
18069,25:23.5,IMU,74685114,0,-0.03078703,-0.0266294,0.001342518,0.06579611,0.00889316,-14.86631,0,0,29.30777,1,1,1000,1000
18070,25:23.5,IMU,74685114,1,-0.03094212,-0.02681901,0.001281823,0.06491455,0.01136412,-14.85354,0,0,29.30777,1,1,760,800
18121,25:23.5,IMU,74725098,0,-0.03423738,-0.02412069,0.001599359,0.09409179,0.02131018,-14.99086,0,0,29.30986,1,1,1000,1000
18122,25:23.5,IMU,74725098,1,-0.03421849,-0.02402942,0.001715459,0.09428583,0.02016795,-14.97821,0,0,29.30986,1,1,760,800
18222,25:23.6,IMU,74765082,0,-0.03239724,-0.01379238,0.00178507,0.1150275,0.03236982,-14.06022,0,0,29.31196,1,1,1000,1000
18223,25:23.6,IMU,74765082,1,-0.03225241,-0.01404891,0.001711427,0.1133614,0.03254098,-14.0542,0,0,29.31196,1,1,760,800
18280,25:23.6,IMU,74805066,0,-0.02822565,-0.002431888,0.001951259,0.1315179,0.04282378,-12.86259,0,0,29.3141,1,1,1000,1000
18281,25:23.6,IMU,74805066,1,-0.02810382,-0.002146048,0.002164386,0.132284,0.04094963,-12.86003,0,0,29.3141,1,1,760,800
18379,25:23.7,IMU,74845050,0,-0.02053295,0.01058381,0.002039455,0.1463095,0.04407649,-11.66395,0,0,29.31619,1,1,1000,1000
18380,25:23.7,IMU,74845050,1,-0.02041278,0.01059766,0.002210612,0.1466357,0.04429643,-11.66377,0,0,29.31619,1,1,760,800
18431,25:23.7,IMU,74885034,0,-0.01395394,0.0222191,0.002153657,0.1578397,0.03953286,-10.64746,0,0,29.31828,1,1,1000,1000
18432,25:23.7,IMU,74885034,1,-0.01384722,0.0222633,0.002386471,0.1565849,0.04015862,-10.64526,0,0,29.31828,1,1,760,800
18484,25:23.7,IMU,74925018,0,-0.008386547,0.03126147,0.002255797,0.1661586,0.03534617,-9.887739,0,0,29.32037,1,1,1000,1000
18485,25:23.7,IMU,74925018,1,-0.008259287,0.03111683,0.002270323,0.1658754,0.03541815,-9.883689,0,0,29.32037,1,1,760,800
18584,25:23.8,IMU,74965002,0,-0.003533212,0.03590904,0.00224058,0.1710563,0.02919419,-9.41502,0,0,29.32246,1,1,1000,1000
18585,25:23.8,IMU,74965002,1,-0.003433042,0.03580844,0.002325499,0.1717989,0.02489678,-9.415598,0,0,29.32246,1,1,760,800
18638,25:23.8,IMU,75004986,0,0.000594144,0.04094803,0.00221251,0.1719367,0.02387839,-9.201349,0,0,29.3245,1,1,1000,1000
18639,25:23.8,IMU,75004986,1,0.000636263,0.04091714,0.002197432,0.1701936,0.02160933,-9.198747,0,0,29.3245,1,1,760,800
18741,25:23.9,IMU,75044970,0,0.004401001,0.04269301,0.002170913,0.1718748,0.02042146,-9.201242,0,0,29.32659,1,1,1000,1000
18742,25:23.9,IMU,75044970,1,0.004520583,0.04264717,0.002343476,0.1729155,0.02015407,-9.20254,0,0,29.32659,1,1,760,800
18793,25:23.9,IMU,75084954,0,0.008548459,0.04512553,0.002107779,0.17134,0.01909746,-9.349462,0,0,29.32868,1,1,1000,1000
18794,25:23.9,IMU,75084954,1,0.008325223,0.04492243,0.002207772,0.1703705,0.01909851,-9.350185,0,0,29.32868,1,1,760,800
18846,25:23.9,IMU,75124938,0,0.01085784,0.04622248,0.002091155,0.1687302,0.01786949,-9.589269,0,0,29.33077,1,1,1000,1000
18847,25:23.9,IMU,75124938,1,0.010999,0.04624413,0.002219207,0.1685096,0.01996237,-9.590096,0,0,29.33077,1,1,760,800
18947,25:24.0,IMU,75164922,0,0.01340356,0.04489297,0.002114749,0.1688171,0.0193429,-9.862723,0,0,29.33286,1,1,1000,1000
18948,25:24.0,IMU,75164922,1,0.0134517,0.04480667,0.002312234,0.170125,0.02180697,-9.863077,0,0,29.33286,1,1,760,800
19002,25:24.0,IMU,75204906,0,0.01330149,0.04250411,0.002055464,0.1737138,0.02164756,-10.12589,0,0,29.33495,1,1,1000,1000
19003,25:24.0,IMU,75204906,1,0.01335659,0.04248418,0.001996632,0.1748081,0.02082781,-10.12893,0,0,29.33495,1,1,760,800
19101,25:24.1,IMU,75244890,0,0.0138366,0.04119016,0.00197429,0.1774943,0.02456237,-10.35993,0,0,29.33704,1,1,1000,1000
19102,25:24.1,IMU,75244890,1,0.01389843,0.0412912,0.002047776,0.1765719,0.02517167,-10.35868,0,0,29.33704,1,1,760,800
19153,25:24.1,IMU,75284874,0,0.01670578,0.04058466,0.001945128,0.1837718,0.02707329,-10.55117,0,0,29.33912,1,1,1000,1000
19154,25:24.1,IMU,75284874,1,0.01684184,0.04062244,0.001904164,0.1843372,0.02465994,-10.55091,0,0,29.33912,1,1,760,800
19205,25:24.1,IMU,75324858,0,0.01426164,0.04011982,0.001948408,0.1898137,0.02861855,-10.66438,0,0,29.34121,1,1,1000,1000
19206,25:24.1,IMU,75324858,1,0.01421908,0.03995844,0.002019644,0.1886938,0.0285532,-10.66345,0,0,29.34121,1,1,760,800
19305,25:24.2,IMU,75364842,0,0.01274564,0.03694456,0.001803518,0.1981749,0.03011348,-10.76946,0,0,29.3433,1,1,1000,1000
19306,25:24.2,IMU,75364842,1,0.01265712,0.03693318,0.00188916,0.1997033,0.02808042,-10.76973,0,0,29.3433,1,1,760,800
19360,25:24.2,IMU,75404826,0,0.01081487,0.03259642,0.001778912,0.2051886,0.03237581,-10.81522,0,0,29.34539,1,1,1000,1000
19361,25:24.2,IMU,75404826,1,0.0108845,0.03250389,0.001667147,0.2043805,0.03142206,-10.81513,0,0,29.34539,1,1,760,800
19461,25:24.3,IMU,75444810,0,0.009862108,0.03366156,0.001685895,0.2122561,0.03271967,-10.82527,0,0,29.34748,1,1,1000,1000
19462,25:24.3,IMU,75444810,1,0.01003554,0.03366365,0.001740624,0.2118271,0.03302954,-10.82587,0,0,29.34748,1,1,760,800
19515,25:24.3,IMU,75484794,0,0.00905491,0.03144857,0.001772101,0.2175698,0.03334145,-10.83369,0,0,29.34956,1,1,1000,1000
19516,25:24.3,IMU,75484794,1,0.008833462,0.03163552,0.001653473,0.2172122,0.03276209,-10.83583,0,0,29.34956,1,1,760,800
19568,25:24.3,IMU,75524778,0,0.008235942,0.03132836,0.001681918,0.2239016,0.03543194,-10.82563,0,0,29.35165,1,1,1000,1000
19569,25:24.3,IMU,75524778,1,0.008215792,0.03140986,0.00167882,0.2240659,0.03643795,-10.82165,0,0,29.35165,1,1,760,800
19671,25:24.4,IMU,75564762,0,0.00771904,0.02895135,0.001594042,0.2292961,0.03366062,-10.80084,0,0,29.35373,1,1,1000,1000
19672,25:24.4,IMU,75564762,1,0.007709368,0.02895684,0.001742092,0.2278947,0.03285008,-10.79885,0,0,29.35373,1,1,760,800
19726,25:24.4,IMU,75604746,0,0.009573337,0.03048989,0.00159164,0.2340527,0.03504223,-10.79448,0,0,29.35582,1,1,1000,1000
19727,25:24.4,IMU,75604746,1,0.009471828,0.03045077,0.001559879,0.2334583,0.03562694,-10.79602,0,0,29.35582,1,1,760,800
19825,25:24.5,IMU,75644730,0,0.006808228,0.0278195,0.001637475,0.2390741,0.0363792,-10.79309,0,0,29.35791,1,1,1000,1000
19826,25:24.5,IMU,75644730,1,0.00661645,0.02784123,0.001709319,0.2402637,0.03760072,-10.79348,0,0,29.35791,1,1,760,800
19878,25:24.5,IMU,75684714,0,0.00744833,0.02888005,0.001732404,0.2449436,0.03645375,-10.79422,0,0,29.35999,1,1,1000,1000
19879,25:24.5,IMU,75684714,1,0.007442853,0.02899347,0.001850991,0.2443103,0.03459416,-10.79495,0,0,29.35999,1,1,760,800
19931,25:24.5,IMU,75724698,0,0.009570636,0.02891606,0.001789745,0.2494117,0.03597669,-10.79966,0,0,29.36208,1,1,1000,1000
19932,25:24.5,IMU,75724698,1,0.009551324,0.02887647,0.00175967,0.249319,0.03849021,-10.80277,0,0,29.36208,1,1,760,800
20032,25:24.6,IMU,75764682,0,0.006076472,0.02332282,0.001612383,0.2548,0.03758631,-10.80939,0,0,29.36416,1,1,1000,1000
20033,25:24.6,IMU,75764682,1,0.006176741,0.02311011,0.001682473,0.2565072,0.03742617,-10.80794,0,0,29.36416,1,1,760,800
20087,25:24.6,IMU,75804666,0,0.004620672,0.02427626,0.001528855,0.2625457,0.0378885,-10.81683,0,0,29.36625,1,1,1000,1000
20088,25:24.6,IMU,75804666,1,0.004644551,0.02433759,0.001451115,0.2619648,0.03751289,-10.81689,0,0,29.36625,1,1,760,800
20186,25:24.7,IMU,75844650,0,0.003287539,0.02440688,0.001543139,0.266547,0.0371623,-10.83034,0,0,29.36833,1,1,1000,1000
20187,25:24.7,IMU,75844650,1,0.003340855,0.02440267,0.0016068,0.2681551,0.03612344,-10.83305,0,0,29.36833,1,1,760,800
20238,25:24.7,IMU,75884634,0,0.006063783,0.02391793,0.001589216,0.2735539,0.03800246,-10.84453,0,0,29.37041,1,1,1000,1000
20239,25:24.7,IMU,75884634,1,0.006027389,0.02401662,0.00155928,0.2746233,0.03820896,-10.84451,0,0,29.37041,1,1,760,800
20290,25:24.7,IMU,75924618,0,0.002014485,0.02306413,0.001673458,0.2809617,0.03877394,-10.85424,0,0,29.3725,1,1,1000,1000
20291,25:24.7,IMU,75924618,1,0.002090351,0.02301909,0.001732384,0.2801679,0.03667206,-10.85597,0,0,29.3725,1,1,760,800
20391,25:24.8,IMU,75964602,0,0.001462165,0.02147007,0.001573207,0.2863396,0.04038563,-10.84685,0,0,29.37458,1,1,1000,1000
20392,25:24.8,IMU,75964602,1,0.001637607,0.021374,0.001592383,0.2876898,0.03912085,-10.84773,0,0,29.37458,1,1,760,800
20446,25:24.8,IMU,76004586,0,0.000457382,0.01634413,0.001525928,0.2948088,0.0401502,-10.86842,0,0,29.37667,1,1,1000,1000
20447,25:24.8,IMU,76004586,1,0.000386472,0.01630842,0.001505527,0.2922981,0.04050875,-10.86822,0,0,29.37667,1,1,760,800
20548,25:24.9,IMU,76045403,0,0.0016541,0.0175329,0.001436394,0.2992475,0.04078351,-10.86327,0,0,29.3788,1,1,1000,1000
20549,25:24.9,IMU,76045403,1,0.001600559,0.017417,0.001589208,0.3001353,0.04089451,-10.86308,0,0,29.37875,1,1,760,800
20600,25:24.9,IMU,76085387,0,0.003426027,0.01504657,0.001641828,0.3076424,0.03994606,-10.86867,0,0,29.38088,1,1,1000,1000
20601,25:24.9,IMU,76085387,1,0.003636248,0.01520233,0.00155601,0.3106976,0.04235794,-10.87268,0,0,29.38083,1,1,760,800
20653,25:24.9,IMU,76125371,0,0.002400702,0.01698387,0.001516745,0.314347,0.04096055,-10.86122,0,0,29.38297,1,1,1000,1000
20654,25:24.9,IMU,76125371,1,0.002338303,0.01710902,0.001484484,0.3117416,0.04165531,-10.86016,0,0,29.38291,1,1,760,800
20752,25:25.0,IMU,76165355,0,7.374706E-05,0.01564286,0.00170212,0.3218989,0.04182788,-10.86254,0,0,29.38505,1,1,1000,1000
20753,25:25.0,IMU,76165355,1,0.000184471,0.01562674,0.001608425,0.3226956,0.04088929,-10.86408,0,0,29.38499,1,1,760,800
20808,25:25.0,IMU,76205339,0,-0.00097442,0.01556318,0.001660374,0.3281435,0.04103696,-10.85383,0,0,29.38713,1,1,1000,1000
20809,25:25.0,IMU,76205339,1,-0.001018494,0.01539073,0.001656306,0.3271334,0.04169959,-10.85294,0,0,29.38708,1,1,760,800
20909,25:25.1,IMU,76245323,0,0.0005697,0.01783492,0.001532096,0.3354712,0.04128428,-10.86204,0,0,29.38921,1,1,1000,1000
20910,25:25.1,IMU,76245323,1,0.000617619,0.01785861,0.001537153,0.3346639,0.04225636,-10.86315,0,0,29.38916,1,1,760,800
20962,25:25.1,IMU,76285307,0,0.000203163,0.01670128,0.001563911,0.3417667,0.0414191,-10.84617,0,0,29.39129,1,1,1000,1000
20963,25:25.1,IMU,76285307,1,0.000472111,0.01644835,0.001671324,0.3419245,0.03894388,-10.84676,0,0,29.39124,1,1,760,800
21015,25:25.1,IMU,76325291,0,-0.002204784,0.0161752,0.001536751,0.3493355,0.04151263,-10.85373,0,0,29.39337,1,1,1000,1000
21016,25:25.1,IMU,76325291,1,-0.002285513,0.01611873,0.0017132,0.3470684,0.04051654,-10.85398,0,0,29.39332,1,1,760,800
21115,25:25.2,IMU,76365275,0,-0.002384787,0.01540919,0.001533888,0.3554817,0.04163335,-10.81909,0,0,29.39545,1,1,1000,1000
21116,25:25.2,IMU,76365275,1,-0.002114042,0.01531854,0.001329614,0.3568254,0.04092431,-10.82115,0,0,29.3954,1,1,760,800
21173,25:25.2,IMU,76405259,0,-0.003309381,0.01395301,0.001480562,0.3616782,0.04177873,-10.72239,0,0,29.39754,1,1,1000,1000
21174,25:25.2,IMU,76405259,1,-0.003197057,0.01403719,0.001556968,0.3600152,0.04215297,-10.72354,0,0,29.39748,1,1,760,800
21275,25:25.3,IMU,76445243,0,-0.00920167,0.01565709,0.001648015,0.3667459,0.04271311,-10.61152,0,0,29.39962,1,1,1000,1000
21276,25:25.3,IMU,76445243,1,-0.009208299,0.0155218,0.001594034,0.3647882,0.04072659,-10.615,0,0,29.39956,1,1,760,800
21329,25:25.3,IMU,76485227,0,-0.008777263,0.01634521,0.001632885,0.3717198,0.04202534,-10.51108,0,0,29.40164,1,1,1000,1000
21330,25:25.3,IMU,76485227,1,-0.008665109,0.01643058,0.001673642,0.3751567,0.04138477,-10.51154,0,0,29.40164,1,1,760,800
21381,25:25.3,IMU,76525211,0,-0.00696692,0.01691562,0.001568627,0.3778718,0.04226675,-10.41655,0,0,29.40372,1,1,1000,1000
21382,25:25.3,IMU,76525211,1,-0.006814092,0.01696876,0.001450274,0.3777968,0.04168557,-10.41408,0,0,29.40372,1,1,760,800
21484,25:25.4,IMU,76565195,0,-0.00641781,0.01618279,0.001611461,0.3842301,0.04254849,-10.3324,0,0,29.4058,1,1,1000,1000
21485,25:25.4,IMU,76565195,1,-0.006270135,0.01622734,0.001536734,0.3837412,0.03969237,-10.33415,0,0,29.4058,1,1,760,800
21539,25:25.4,IMU,76605179,0,-0.00658734,0.01482398,0.001459729,0.3887095,0.04192107,-10.25406,0,0,29.40788,1,1,1000,1000
21540,25:25.4,IMU,76605179,1,-0.006457806,0.01467284,0.001482119,0.3887365,0.04188207,-10.25351,0,0,29.40788,1,1,760,800
21639,25:25.5,IMU,76645163,0,-0.005421377,0.01556664,0.001523014,0.3947854,0.04163091,-10.17902,0,0,29.40996,1,1,1000,1000
21640,25:25.5,IMU,76645163,1,-0.005372313,0.015592,0.001613804,0.3956863,0.04158922,-10.18209,0,0,29.40996,1,1,760,800
21691,25:25.5,IMU,76685147,0,-0.004056355,0.01684351,0.001452505,0.4003095,0.04233178,-10.11407,0,0,29.41204,1,1,1000,1000
21692,25:25.5,IMU,76685147,1,-0.003691254,0.01695537,0.001434581,0.400205,0.04217517,-10.11398,0,0,29.41204,1,1,760,800
21745,25:25.5,IMU,76725131,0,-0.004202273,0.0175996,0.001463055,0.4072076,0.04259721,-10.05387,0,0,29.41412,1,1,1000,1000
21746,25:25.5,IMU,76725131,1,-0.00437957,0.01761273,0.001393906,0.4057527,0.04266663,-10.05427,0,0,29.41412,1,1,760,800
21846,25:25.6,IMU,76765115,0,-0.000222771,0.01671692,0.001640984,0.4122934,0.04480788,-9.999622,0,0,29.41619,1,1,1000,1000
21847,25:25.6,IMU,76765115,1,-0.000196359,0.01665805,0.001572059,0.4107723,0.04312747,-10.00181,0,0,29.41619,1,1,760,800
21901,25:25.6,IMU,76805099,0,-0.001728073,0.01539757,0.00168517,0.418326,0.04404627,-9.939632,0,0,29.41827,1,1,1000,1000
21902,25:25.6,IMU,76805099,1,-0.001697573,0.01538784,0.001657852,0.4167753,0.0431047,-9.938379,0,0,29.41827,1,1,760,800
22000,25:25.7,IMU,76845083,0,-0.001853144,0.01557257,0.001826305,0.4223594,0.04421186,-9.850923,0,0,29.42035,1,1,1000,1000
22001,25:25.7,IMU,76845083,1,-0.001773231,0.01563846,0.001865168,0.4216386,0.04293558,-9.850424,0,0,29.42035,1,1,760,800
22052,25:25.7,IMU,76885067,0,-0.00011459,0.01678931,0.002101798,0.4277195,0.04323799,-9.756769,0,0,29.42243,1,1,1000,1000
22053,25:25.7,IMU,76885067,1,8.610505E-05,0.01666226,0.00201812,0.4261002,0.04697723,-9.759223,0,0,29.42243,1,1,760,800
22104,25:25.7,IMU,76925051,0,0.001137346,0.01794186,0.002259798,0.4325566,0.04468837,-9.676432,0,0,29.42455,1,1,1000,1000
22105,25:25.7,IMU,76925051,1,0.001258948,0.01788884,0.002301381,0.4310782,0.04310249,-9.674811,0,0,29.42455,1,1,760,800
22204,25:25.8,IMU,76965035,0,0.001521775,0.01791028,0.002515509,0.4368173,0.04509823,-9.598466,0,0,29.42663,1,1,1000,1000
22205,25:25.8,IMU,76965035,1,0.001654237,0.01797352,0.002525821,0.4367113,0.04430393,-9.598651,0,0,29.42663,1,1,760,800
22259,25:25.8,IMU,77005019,0,0.00062748,0.01743068,0.002667063,0.4423025,0.04545387,-9.531007,0,0,29.42871,1,1,1000,1000
22260,25:25.8,IMU,77005019,1,0.000682077,0.01746468,0.002548047,0.4435248,0.04608708,-9.533171,0,0,29.42871,1,1,760,800
22360,25:25.9,IMU,77045003,0,0.000743187,0.0168378,0.002731249,0.4465222,0.04501802,-9.470943,0,0,29.43079,1,1,1000,1000
22361,25:25.9,IMU,77045003,1,0.000951314,0.01674279,0.002675256,0.4475598,0.04459025,-9.472108,0,0,29.43079,1,1,760,800
22413,25:25.9,IMU,77084987,0,0.002426699,0.01926499,0.002849084,0.4525653,0.04547992,-9.418368,0,0,29.43281,1,1,1000,1000
22414,25:25.9,IMU,77084987,1,0.002590769,0.01922976,0.003004665,0.452563,0.04387958,-9.416249,0,0,29.43281,1,1,760,800
22465,25:25.9,IMU,77124971,0,0.003356749,0.01959457,0.002967654,0.4567027,0.04558347,-9.368206,0,0,29.43488,1,1,1000,1000
22466,25:25.9,IMU,77124971,1,0.003253969,0.01966735,0.003121977,0.4569595,0.04667768,-9.367081,0,0,29.43488,1,1,760,800
22565,25:26.0,IMU,77164955,0,0.004567652,0.01877751,0.003067223,0.4623458,0.04701123,-9.327191,0,0,29.43696,1,1,1000,1000
22566,25:26.0,IMU,77164955,1,0.004500456,0.01860617,0.003018816,0.4614033,0.04510542,-9.326879,0,0,29.43696,1,1,760,800
22621,25:26.0,IMU,77204939,0,0.001265469,0.01786719,0.003063677,0.4664727,0.04628182,-9.290318,0,0,29.43903,1,1,1000,1000
22622,25:26.0,IMU,77204939,1,0.001231878,0.01761089,0.003069963,0.4676924,0.04722925,-9.290502,0,0,29.43903,1,1,760,800
22720,25:26.1,IMU,77244923,0,0.002495331,0.01978013,0.003241249,0.4711658,0.04567375,-9.257135,0,0,29.44111,1,1,1000,1000
22721,25:26.1,IMU,77244923,1,0.002638852,0.01972139,0.003137076,0.4719457,0.044874,-9.259094,0,0,29.44111,1,1,760,800
22773,25:26.1,IMU,77284907,0,0.005180473,0.01996266,0.003158568,0.4777519,0.04647563,-9.230524,0,0,29.44318,1,1,1000,1000
22774,25:26.1,IMU,77284907,1,0.005356178,0.01974599,0.002976661,0.4760307,0.04643036,-9.227837,0,0,29.44318,1,1,760,800
22826,25:26.1,IMU,77324891,0,0.003667837,0.02081544,0.003186356,0.481235,0.04767132,-9.208613,0,0,29.44526,1,1,1000,1000
22827,25:26.1,IMU,77324891,1,0.003746663,0.02076382,0.003280923,0.4803899,0.04857155,-9.211037,0,0,29.44526,1,1,760,800
22926,25:26.2,IMU,77364875,0,0.003420024,0.01880324,0.003252707,0.487203,0.0472816,-9.192488,0,0,29.44733,1,1,1000,1000
22927,25:26.2,IMU,77364875,1,0.003409068,0.01881574,0.00320226,0.4869432,0.04666636,-9.192408,0,0,29.44733,1,1,760,800
22981,25:26.2,IMU,77404859,0,0.003637444,0.01875477,0.003203267,0.4905505,0.04807288,-9.179223,0,0,29.44941,1,1,1000,1000
22982,25:26.2,IMU,77404859,1,0.00351415,0.01860279,0.003216745,0.4920654,0.04796558,-9.176771,0,0,29.44941,1,1,760,800
23082,25:26.3,IMU,77444843,0,0.002142499,0.01803296,0.00317292,0.4977482,0.04790426,-9.169769,0,0,29.45148,1,1,1000,1000
23083,25:26.3,IMU,77444843,1,0.002254583,0.01811642,0.003063063,0.4968617,0.04824574,-9.170755,0,0,29.45148,1,1,760,800
23136,25:26.3,IMU,77484827,0,0.003791489,0.01996471,0.00329214,0.5018511,0.04857529,-9.150837,0,0,29.45355,1,1,1000,1000
23137,25:26.3,IMU,77484827,1,0.003891112,0.01988756,0.003231993,0.5007086,0.04844781,-9.151431,0,0,29.45355,1,1,760,800
23189,25:26.3,IMU,77524811,0,0.003757999,0.01799789,0.003108197,0.5063364,0.04958023,-9.159214,0,0,29.45562,1,1,1000,1000
23190,25:26.3,IMU,77524811,1,0.00366762,0.01793392,0.003155022,0.5106868,0.04777173,-9.158554,0,0,29.45562,1,1,760,800
23290,25:26.4,IMU,77564795,0,0.000286925,0.01816699,0.003075724,0.5119706,0.04829596,-9.138364,0,0,29.4577,1,1,1000,1000
23291,25:26.4,IMU,77564795,1,0.00028847,0.0181417,0.002995203,0.5111455,0.04923713,-9.138988,0,0,29.4577,1,1,760,800
23346,25:26.4,IMU,77604779,0,0.000854127,0.0164084,0.002929519,0.5163596,0.04903159,-9.149473,0,0,29.45977,1,1,1000,1000
23347,25:26.4,IMU,77604779,1,0.000967141,0.01631668,0.002823953,0.5174958,0.04856057,-9.149579,0,0,29.45977,1,1,760,800
23446,25:26.5,IMU,77644763,0,0.000390357,0.01642653,0.002776569,0.5211346,0.04965803,-9.145819,0,0,29.46184,1,1,1000,1000
23447,25:26.5,IMU,77644763,1,0.000441275,0.01637042,0.002723904,0.5226918,0.05131258,-9.145992,0,0,29.46184,1,1,760,800
23498,25:26.5,IMU,77684747,0,-3.44E-05,0.01702091,0.002645299,0.5260893,0.04931081,-9.139267,0,0,29.46391,1,1,1000,1000
23499,25:26.5,IMU,77684747,1,4.947373E-05,0.01679917,0.002584192,0.527694,0.04842285,-9.138342,0,0,29.46391,1,1,760,800
23552,25:26.5,IMU,77724731,0,0.000143571,0.01538177,0.002458394,0.5309019,0.04928749,-9.151079,0,0,29.46598,1,1,1000,1000
23553,25:26.5,IMU,77724731,1,0.000193349,0.01535892,0.002607763,0.5301547,0.05012885,-9.151049,0,0,29.46598,1,1,760,800
23653,25:26.6,IMU,77764715,0,0.00021189,0.0139138,0.002398693,0.5372,0.04947155,-9.161212,0,0,29.46806,1,1,1000,1000
23654,25:26.6,IMU,77764715,1,0.000354658,0.01412726,0.002436086,0.5381367,0.04725807,-9.164434,0,0,29.46806,1,1,760,800
23708,25:26.6,IMU,77804699,0,-0.001023256,0.0150596,0.00226335,0.5417647,0.05005956,-9.160957,0,0,29.47013,1,1,1000,1000
23709,25:26.6,IMU,77804699,1,-0.000893247,0.01488768,0.002178634,0.5443355,0.04905249,-9.159485,0,0,29.47013,1,1,760,800
23807,25:26.7,IMU,77844683,0,-0.000518735,0.01667152,0.002038781,0.5462822,0.05010145,-9.159731,0,0,29.47219,1,1,1000,1000
23808,25:26.7,IMU,77844683,1,-0.000423419,0.01638713,0.001986268,0.5472013,0.04834345,-9.157844,0,0,29.47219,1,1,760,800
23858,25:26.7,IMU,77884667,0,0.000706115,0.01730575,0.001778411,0.5516602,0.04864017,-9.16776,0,0,29.47427,1,1,1000,1000
23859,25:26.7,IMU,77884667,1,0.000724909,0.01726487,0.001643695,0.5486808,0.05187731,-9.168541,0,0,29.47427,1,1,760,800
23911,25:26.7,IMU,77924651,0,0.000628679,0.01593896,0.001442331,0.5557272,0.04977542,-9.178226,0,0,29.47634,1,1,1000,1000
23912,25:26.7,IMU,77924651,1,0.000613177,0.01592243,0.001526074,0.5571674,0.05081188,-9.176477,0,0,29.47634,1,1,760,800
24011,25:26.8,IMU,77964635,0,0.000725497,0.01428798,0.001271093,0.5607038,0.05077068,-9.182803,0,0,29.4784,1,1,1000,1000
24012,25:26.8,IMU,77964635,1,0.000732142,0.01428206,0.001240614,0.5600222,0.04839543,-9.18038,0,0,29.4784,1,1,760,800
24066,25:26.8,IMU,78004619,0,0.000763085,0.01290422,0.001254166,0.565119,0.05020297,-9.191816,0,0,29.48048,1,1,1000,1000
24067,25:26.8,IMU,78004619,1,0.000721025,0.01287699,0.00119231,0.5642411,0.05044131,-9.19261,0,0,29.48048,1,1,760,800
24167,25:26.9,IMU,78044603,0,0.000734198,0.01177463,0.001145341,0.5708417,0.05014116,-9.201719,0,0,29.48254,1,1,1000,1000
24168,25:26.9,IMU,78044603,1,0.000918007,0.01177744,0.001330945,0.5697847,0.04908603,-9.197809,0,0,29.48254,1,1,760,800
24219,25:26.9,IMU,78084587,0,0.000453933,0.0113678,0.001188016,0.5751714,0.05102293,-9.206516,0,0,29.48461,1,1,1000,1000
24220,25:26.9,IMU,78084587,1,0.000500137,0.01146059,0.001183554,0.5757769,0.05056984,-9.20704,0,0,29.48461,1,1,760,800
24272,25:26.9,IMU,78125404,0,-0.002783361,0.01336902,0.001156688,0.5804572,0.05045599,-9.222067,0,0,29.48673,1,1,1000,1000
24273,25:26.9,IMU,78125404,1,-0.002593079,0.01336664,0.001046372,0.5814415,0.04948515,-9.22104,0,0,29.48668,1,1,760,800
24371,25:27.0,IMU,78165388,0,-0.002922562,0.01508262,0.001049345,0.5839812,0.04972702,-9.214796,0,0,29.4888,1,1,1000,1000
24372,25:27.0,IMU,78165388,1,-0.00304144,0.01527055,0.001018364,0.5831745,0.05186888,-9.217041,0,0,29.48875,1,1,760,800
24426,25:27.0,IMU,78205372,0,-0.003404253,0.0147087,0.000916694,0.588532,0.04963223,-9.2232,0,0,29.49087,1,1,1000,1000
24427,25:27.0,IMU,78205372,1,-0.003455952,0.01483652,0.000752077,0.586553,0.05129844,-9.223893,0,0,29.49082,1,1,760,800
24524,25:27.1,IMU,78245356,0,-0.003371892,0.01446955,0.000778637,0.5926446,0.05139436,-9.229546,0,0,29.49294,1,1,1000,1000
24525,25:27.1,IMU,78245356,1,-0.003550725,0.01462031,0.000811039,0.5920279,0.04942361,-9.228493,0,0,29.49289,1,1,760,800
24576,25:27.1,IMU,78285340,0,-0.003639593,0.01573968,0.000704544,0.5970864,0.04970194,-9.236256,0,0,29.495,1,1,1000,1000
24577,25:27.1,IMU,78285340,1,-0.003652782,0.01608591,0.000653933,0.5982802,0.04914156,-9.236926,0,0,29.49495,1,1,760,800
24628,25:27.1,IMU,78325324,0,-0.002827581,0.01592101,0.000466775,0.6008133,0.05075051,-9.239498,0,0,29.49707,1,1,1000,1000
24629,25:27.1,IMU,78325324,1,-0.002780284,0.01595732,0.000499954,0.6033326,0.05156956,-9.23937,0,0,29.49702,1,1,760,800
24727,25:27.2,IMU,78365308,0,-0.002493693,0.0145577,0.000227691,0.6062675,0.05092502,-9.249187,0,0,29.49914,1,1,1000,1000
24728,25:27.2,IMU,78365308,1,-0.002415569,0.01458065,0.000381807,0.6071408,0.05112434,-9.246243,0,0,29.49909,1,1,760,800
24781,25:27.2,IMU,78405292,0,-0.002128161,0.01329553,0.000196373,0.6101024,0.05205762,-9.251604,0,0,29.50121,1,1,1000,1000
24782,25:27.2,IMU,78405292,1,-0.002165526,0.0131712,0.000119722,0.6119413,0.04866211,-9.250113,0,0,29.50115,1,1,760,800
24881,25:27.3,IMU,78445276,0,-0.001789426,0.01226914,0.000253315,0.6139323,0.05105601,-9.258913,0,0,29.50327,1,1,1000,1000
24882,25:27.3,IMU,78445276,1,-0.001748657,0.01212261,0.000253523,0.6158998,0.05060408,-9.260096,0,0,29.50322,1,1,760,800
24934,25:27.3,IMU,78485260,0,-0.001476933,0.01120638,0.000287029,0.6183712,0.05190236,-9.268123,0,0,29.50534,1,1,1000,1000
24935,25:27.3,IMU,78485260,1,-0.001532228,0.01123413,0.000343771,0.6177995,0.05346058,-9.26595,0,0,29.50529,1,1,760,800
24986,25:27.3,IMU,78525244,0,-0.00281977,0.01023478,0.00030906,0.6234124,0.05112346,-9.275162,0,0,29.5074,1,1,1000,1000
24987,25:27.3,IMU,78525244,1,-0.003002643,0.01009089,0.000539747,0.6238156,0.05274268,-9.271681,0,0,29.50735,1,1,760,800
25087,25:27.4,IMU,78565228,0,-0.006031689,0.009454634,0.00026844,0.6269546,0.05163046,-9.280578,0,0,29.50942,1,1,1000,1000
25088,25:27.4,IMU,78565228,1,-0.006121121,0.009290087,0.000266705,0.6256945,0.05064812,-9.280348,0,0,29.50942,1,1,760,800
25142,25:27.4,IMU,78605212,0,-0.008137934,0.008338055,0.000121546,0.6306742,0.05174531,-9.27071,0,0,29.51148,1,1,1000,1000
25143,25:27.4,IMU,78605212,1,-0.00800519,0.008405873,0.000261168,0.6300403,0.05166184,-9.273046,0,0,29.51148,1,1,760,800
25241,25:27.5,IMU,78645196,0,-0.008621005,0.0084696,0.000229684,0.6356463,0.05215089,-9.27966,0,0,29.51355,1,1,1000,1000
25242,25:27.5,IMU,78645196,1,-0.008762677,0.008423598,0.000241139,0.6380618,0.05117178,-9.279214,0,0,29.51355,1,1,760,800
25292,25:27.5,IMU,78685180,0,-0.006292481,0.01023112,0.000242762,0.6385607,0.05220318,-9.281636,0,0,29.51561,1,1,1000,1000
25293,25:27.5,IMU,78685180,1,-0.006287971,0.01013374,0.00016759,0.6360387,0.05044176,-9.278947,0,0,29.51561,1,1,760,800
25345,25:27.5,IMU,78725164,0,-0.006301514,0.011581,0.000184021,0.6437605,0.05280694,-9.281508,0,0,29.51768,1,1,1000,1000
25346,25:27.5,IMU,78725164,1,-0.006252706,0.01153709,0.000117774,0.6444575,0.05256023,-9.28238,0,0,29.51768,1,1,760,800
25445,25:27.6,IMU,78765148,0,-0.005659072,0.01052076,0.000287113,0.646552,0.05384285,-9.289764,0,0,29.51974,1,1,1000,1000
25446,25:27.6,IMU,78765148,1,-0.005601926,0.01033553,0.000263527,0.6461266,0.05376594,-9.290061,0,0,29.51974,1,1,760,800
25501,25:27.6,IMU,78805132,0,-0.004895067,0.009629283,0.000330828,0.6507866,0.05284705,-9.296505,0,0,29.5218,1,1,1000,1000
25502,25:27.6,IMU,78805132,1,-0.005001694,0.009398857,0.000266325,0.6488491,0.05227946,-9.29752,0,0,29.5218,1,1,760,800
25599,25:27.7,IMU,78845116,0,-0.002965251,0.009838585,0.000230237,0.653549,0.05314974,-9.281076,0,0,29.52387,1,1,1000,1000
25600,25:27.7,IMU,78845116,1,-0.002874116,0.009834672,0.000303297,0.6544125,0.05225746,-9.281915,0,0,29.52387,1,1,760,800
25650,25:27.7,IMU,78885100,0,-0.005780042,0.008353041,0.000126096,0.6571772,0.05359155,-9.286206,0,0,29.52593,1,1,1000,1000
25651,25:27.7,IMU,78885100,1,-0.005731519,0.008248707,0.000211065,0.6565127,0.05302056,-9.284043,0,0,29.52593,1,1,760,800
25702,25:27.7,IMU,78925084,0,-0.005087707,0.007370549,3.634415E-05,0.6617934,0.05360684,-9.286679,0,0,29.52799,1,1,1000,1000
25703,25:27.7,IMU,78925084,1,-0.004917365,0.007253125,-4.96E-05,0.6635977,0.05397447,-9.289286,0,0,29.52799,1,1,760,800
25801,25:27.8,IMU,78965068,0,-0.004482568,0.006713746,0.000165784,0.6657832,0.05485031,-9.295135,0,0,29.53006,1,1,1000,1000
25802,25:27.8,IMU,78965068,1,-0.004431369,0.006854769,0.000168381,0.6641049,0.05433455,-9.294333,0,0,29.53006,1,1,760,800
25855,25:27.8,IMU,79005052,0,-0.003937228,0.006166663,0.000222463,0.6691065,0.05514812,-9.297333,0,0,29.53217,1,1,1000,1000
25856,25:27.8,IMU,79005052,1,-0.003909254,0.006146109,0.000246732,0.6705181,0.0559767,-9.296207,0,0,29.53217,1,1,760,800
25955,25:27.9,IMU,79045036,0,-0.001617833,0.006316356,7.921926E-05,0.6719694,0.05537589,-9.2781,0,0,29.53423,1,1,1000,1000
25956,25:27.9,IMU,79045036,1,-0.001462308,0.006298576,0.000153371,0.6715676,0.05588456,-9.277047,0,0,29.53423,1,1,760,800
26006,25:27.9,IMU,79085020,0,-0.001381229,0.008940643,8.184317E-05,0.6745065,0.05569388,-9.283558,0,0,29.5363,1,1,1000,1000
26007,25:27.9,IMU,79085020,1,-0.001349488,0.008890772,2.527593E-05,0.6766574,0.05613964,-9.282869,0,0,29.5363,1,1,760,800
26059,25:27.9,IMU,79125004,0,-0.001126495,0.008166726,0.000225036,0.6779927,0.05602571,-9.291275,0,0,29.53836,1,1,1000,1000
26060,25:27.9,IMU,79125004,1,-0.001159993,0.008037976,0.000253859,0.6795428,0.05313812,-9.289861,0,0,29.53836,1,1,760,800
26158,25:28.0,IMU,79164988,0,-0.001210622,0.007499079,0.000238008,0.6819759,0.05526491,-9.295399,0,0,29.54037,1,1,1000,1000
26159,25:28.0,IMU,79164988,1,-0.000904861,0.007542828,0.000152357,0.6833429,0.05389739,-9.295767,0,0,29.54037,1,1,760,800
26212,25:28.0,IMU,79204972,0,-0.002548127,0.005138137,-2.74E-05,0.6862873,0.0567531,-9.277088,0,0,29.54243,1,1,1000,1000
26213,25:28.0,IMU,79204972,1,-0.002598283,0.005388453,-5.68E-05,0.6850157,0.05528511,-9.277432,0,0,29.54243,1,1,760,800
26311,25:28.1,IMU,79244956,0,-0.002141577,0.003884488,-5.37E-05,0.6879905,0.05701398,-9.284563,0,0,29.54449,1,1,1000,1000
26312,25:28.1,IMU,79244956,1,-0.002213556,0.003788836,1.02175E-05,0.6890239,0.05692676,-9.286236,0,0,29.54449,1,1,760,800
26362,25:28.1,IMU,79284940,0,-0.001888726,0.007131182,-4.17E-05,0.69128,0.05790586,-9.285453,0,0,29.54655,1,1,1000,1000
26363,25:28.1,IMU,79284940,1,-0.001943776,0.007081288,-0.000173958,0.6928138,0.05914875,-9.288148,0,0,29.54655,1,1,760,800
26414,25:28.1,IMU,79324924,0,-0.001600855,0.006466588,5.244894E-05,0.6935707,0.05843795,-9.294113,0,0,29.54861,1,1,1000,1000
26415,25:28.1,IMU,79324924,1,-0.001646325,0.006351864,-4.75E-05,0.6962993,0.05942027,-9.292374,0,0,29.54861,1,1,760,800
26513,25:28.2,IMU,79364908,0,0.00047406,0.006800641,-0.000102424,0.6974339,0.05829359,-9.273038,0,0,29.55067,1,1,1000,1000
26514,25:28.2,IMU,79364908,1,0.000495159,0.006770642,-3.68E-06,0.6981809,0.05775598,-9.274784,0,0,29.55067,1,1,760,800
26567,25:28.2,IMU,79404892,0,0.000494943,0.002729745,-0.000139223,0.6994327,0.05944485,-9.276717,0,0,29.55273,1,1,1000,1000
26568,25:28.2,IMU,79404892,1,0.00052331,0.00263605,-0.000166599,0.6994582,0.05775185,-9.277763,0,0,29.55273,1,1,760,800
26667,25:28.3,IMU,79444876,0,0.000537319,0.002769612,-3.58E-05,0.703174,0.05980207,-9.283742,0,0,29.55479,1,1,1000,1000
26668,25:28.3,IMU,79444876,1,0.000573887,0.002752866,-0.000195307,0.7062534,0.05855519,-9.282504,0,0,29.55479,1,1,760,800
26720,25:28.3,IMU,79484860,0,-0.000115367,0.00612239,1.172385E-05,0.7074493,0.05979902,-9.275255,0,0,29.55685,1,1,1000,1000
26721,25:28.3,IMU,79484860,1,6.348045E-05,0.005944767,7.958336E-05,0.7066104,0.06149661,-9.274438,0,0,29.55685,1,1,760,800
26772,25:28.3,IMU,79524844,0,-0.00019776,0.007403418,-6.36E-05,0.7082114,0.0610735,-9.267588,0,0,29.55891,1,1,1000,1000
26773,25:28.3,IMU,79524844,1,-0.000320327,0.007366471,2.332505E-05,0.7082577,0.06319141,-9.266237,0,0,29.55891,1,1,760,800
26873,25:28.4,IMU,79564828,0,-7.63E-05,0.004407479,-4.25E-07,0.7110343,0.06188027,-9.273383,0,0,29.56097,1,1,1000,1000
26874,25:28.4,IMU,79564828,1,5.978781E-05,0.004193945,-6.95E-05,0.7100826,0.05979421,-9.271385,0,0,29.56097,1,1,760,800
26927,25:28.4,IMU,79604812,0,-2.62E-05,0.004228488,4.566448E-05,0.7142569,0.06163175,-9.27951,0,0,29.56303,1,1,1000,1000
26928,25:28.4,IMU,79604812,1,-7.84E-05,0.004111314,9.230382E-05,0.7134479,0.05918156,-9.276543,0,0,29.56303,1,1,760,800
27027,25:28.5,IMU,79644796,0,0.000748096,0.00605813,-2.53E-05,0.7154267,0.06334219,-9.264252,0,0,29.56508,1,1,1000,1000
27028,25:28.5,IMU,79644796,1,0.000794735,0.006068313,-8.18E-05,0.7161824,0.06163071,-9.263587,0,0,29.56508,1,1,760,800
27078,25:28.5,IMU,79684780,0,-0.000660245,0.007252948,-0.000138841,0.7183102,0.06182284,-9.262346,0,0,29.56714,1,1,1000,1000
27079,25:28.5,IMU,79684780,1,-0.000849958,0.007314341,-0.000175228,0.7193282,0.06374083,-9.263529,0,0,29.56714,1,1,760,800
27131,25:28.5,IMU,79724764,0,-0.000426635,0.006659119,-1.33E-05,0.7206383,0.0627538,-9.268793,0,0,29.5692,1,1,1000,1000
27132,25:28.5,IMU,79724764,1,-0.000337018,0.006352147,0.000168447,0.7223231,0.06540052,-9.26818,0,0,29.5692,1,1,760,800
27231,25:28.6,IMU,79764748,0,-0.000801814,0.006306405,6.301092E-05,0.7238963,0.06273478,-9.267241,0,0,29.57126,1,1,1000,1000
27232,25:28.6,IMU,79764748,1,-0.000764193,0.006189484,9.866623E-06,0.7227333,0.06265498,-9.26686,0,0,29.57126,1,1,760,800
27286,25:28.6,IMU,79804732,0,-0.001060862,0.004804235,-0.000129123,0.7264926,0.06444892,-9.253331,0,0,29.57331,1,1,1000,1000
27287,25:28.6,IMU,79804732,1,-0.000970161,0.004848471,-0.00020456,0.7281554,0.06601891,-9.253955,0,0,29.57331,1,1,760,800
27384,25:28.7,IMU,79844716,0,-0.000856269,0.008052785,-0.000147573,0.7275695,0.06376509,-9.256466,0,0,29.57537,1,1,1000,1000
27385,25:28.7,IMU,79844716,1,-0.000840589,0.007970352,-0.000141241,0.7276856,0.06575277,-9.255721,0,0,29.57537,1,1,760,800
27435,25:28.7,IMU,79884700,0,-0.00062439,0.007358722,-3.63E-05,0.7303836,0.06459604,-9.263937,0,0,29.57743,1,1,1000,1000
27436,25:28.7,IMU,79884700,1,-0.000509826,0.007310652,-9.13E-05,0.7308771,0.06483935,-9.262243,0,0,29.57743,1,1,760,800
27488,25:28.7,IMU,79924684,0,-4.66E-06,0.008459628,-0.000140061,0.732867,0.06419162,-9.247099,0,0,29.57948,1,1,1000,1000
27489,25:28.7,IMU,79924684,1,0.000247976,0.008600932,-0.000120665,0.7324162,0.06386095,-9.24579,0,0,29.57948,1,1,760,800
27587,25:28.8,IMU,79964668,0,0.00037452,0.005281351,-8.73E-05,0.7341561,0.06573579,-9.245638,0,0,29.58154,1,1,1000,1000
27588,25:28.8,IMU,79964668,1,0.000336627,0.005256366,-0.000120254,0.7332978,0.06584093,-9.24647,0,0,29.58154,1,1,760,800
27641,25:28.8,IMU,80004652,0,0.000430921,0.005000249,-4.24E-05,0.7368014,0.06513493,-9.252909,0,0,29.58359,1,1,1000,1000
27642,25:28.8,IMU,80004652,1,0.000381149,0.004887412,-7.23E-05,0.735909,0.06571645,-9.250078,0,0,29.58359,1,1,760,800
27741,25:28.9,IMU,80044636,0,0.003338464,0.006854189,9.290119E-05,0.7382406,0.06696298,-9.246467,0,0,29.58565,1,1,1000,1000
27742,25:28.9,IMU,80044636,1,0.00344549,0.006960488,2.190934E-05,0.7377319,0.06571759,-9.251163,0,0,29.58565,1,1,760,800
27792,25:28.9,IMU,80084620,0,0.00383634,0.005993747,5.010226E-05,0.7408379,0.06701283,-9.239759,0,0,29.58771,1,1,1000,1000
27793,25:28.9,IMU,80084620,1,0.003987216,0.005847408,8.98106E-07,0.7404407,0.06894074,-9.24041,0,0,29.58771,1,1,760,800
27844,25:28.9,IMU,80124604,0,0.003729335,0.007516829,4.011498E-05,0.7419283,0.0676616,-9.241932,0,0,29.58976,1,1,1000,1000
27845,25:28.9,IMU,80124604,1,0.003778282,0.007293739,-4.92E-06,0.7429628,0.06716201,-9.24333,0,0,29.58976,1,1,760,800
27944,25:29.0,IMU,80164588,0,0.003627647,0.006763958,0.000161988,0.7448127,0.06809735,-9.243371,0,0,29.59181,1,1,1000,1000
27945,25:29.0,IMU,80164588,1,0.003495543,0.006924284,-1.53E-05,0.7458453,0.06975652,-9.245356,0,0,29.59181,1,1,760,800
27998,25:29.0,IMU,80205405,0,0.003326022,0.006548823,4.471568E-06,0.745979,0.06782443,-9.226285,0,0,29.59392,1,1,1000,1000
27999,25:29.0,IMU,80205405,1,0.003439204,0.006509461,-4.77E-05,0.7475376,0.06880489,-9.229229,0,0,29.59387,1,1,760,800
28097,25:29.1,IMU,80245389,0,0.003069705,0.0032359,2.505912E-05,0.7488557,0.06995078,-9.231356,0,0,29.59597,1,1,1000,1000
28098,25:29.1,IMU,80245389,1,0.003195278,0.003205661,-6.80E-05,0.7463357,0.06829301,-9.228302,0,0,29.59592,1,1,760,800
28148,25:29.1,IMU,80285373,0,0.002301836,0.003296676,0.000120361,0.7502235,0.06824626,-9.232528,0,0,29.59803,1,1,1000,1000
28149,25:29.1,IMU,80285373,1,0.002278488,0.003191464,0.000183108,0.7469544,0.06913991,-9.232685,0,0,29.59798,1,1,760,800
28200,25:29.1,IMU,80325357,0,0.002881073,0.003636861,6.011367E-05,0.7510126,0.06965302,-9.216139,0,0,29.60008,1,1,1000,1000
28201,25:29.1,IMU,80325357,1,0.002904595,0.003683025,0.000109785,0.7528167,0.06860767,-9.215471,0,0,29.60003,1,1,760,800
28299,25:29.2,IMU,80365341,0,0.002774097,0.005369512,1.314809E-05,0.7525979,0.0692513,-9.219016,0,0,29.60213,1,1,1000,1000
28300,25:29.2,IMU,80365341,1,0.002818061,0.005379624,-1.20E-05,0.7550414,0.07030916,-9.217553,0,0,29.60208,1,1,760,800
28353,25:29.2,IMU,80405325,0,0.001504815,0.004953574,0.000125502,0.7558756,0.07072487,-9.221145,0,0,29.60419,1,1,1000,1000
28354,25:29.2,IMU,80405325,1,0.001487581,0.004906262,0.000145376,0.7552894,0.07092208,-9.222196,0,0,29.60414,1,1,760,800
28453,25:29.3,IMU,80445309,0,0.002696258,0.004653114,-8.93E-07,0.7571669,0.07052569,-9.200574,0,0,29.60624,1,1,1000,1000
28454,25:29.3,IMU,80445309,1,0.00283875,0.004588227,0.000157435,0.7564533,0.06915455,-9.198123,0,0,29.60619,1,1,760,800
28506,25:29.3,IMU,80485293,0,0.002454552,0.004368939,0.000139703,0.7576829,0.07050509,-9.207297,0,0,29.60829,1,1,1000,1000
28507,25:29.3,IMU,80485293,1,0.002596948,0.004298784,0.000263024,0.7591692,0.07177323,-9.208853,0,0,29.60824,1,1,760,800
28558,25:29.3,IMU,80525277,0,0.000261294,0.004206062,8.726175E-05,0.7587171,0.07161335,-9.204987,0,0,29.61034,1,1,1000,1000
28559,25:29.3,IMU,80525277,1,0.000217321,0.004094283,0.000212787,0.7595393,0.06902534,-9.20651,0,0,29.61029,1,1,760,800
28659,25:29.4,IMU,80565261,0,0.001573704,0.003813446,7.292176E-05,0.7598447,0.07119036,-9.189082,0,0,29.6124,1,1,1000,1000
28660,25:29.4,IMU,80565261,1,0.001589556,0.003865812,9.300181E-05,0.7583104,0.07045922,-9.189213,0,0,29.61234,1,1,760,800
28713,25:29.4,IMU,80605245,0,0.00146252,0.003533128,0.000139012,0.7621827,0.07235221,-9.197453,0,0,29.61445,1,1,1000,1000
28714,25:29.4,IMU,80605245,1,0.001484907,0.003420793,0.000270479,0.7599217,0.07046895,-9.195373,0,0,29.6144,1,1,760,800
28812,25:29.5,IMU,80645229,0,0.000755882,0.005701524,0.000112048,0.7625116,0.07082558,-9.177708,0,0,29.61645,1,1,1000,1000
28813,25:29.5,IMU,80645229,1,0.000958458,0.005565808,0.000314447,0.7615589,0.07199638,-9.18149,0,0,29.61645,1,1,760,800
28864,25:29.5,IMU,80685213,0,0.001540497,0.003862679,9.171337E-05,0.7637014,0.07165305,-9.177617,0,0,29.6185,1,1,1000,1000
28865,25:29.5,IMU,80685213,1,0.001532157,0.003811935,4.825624E-05,0.7619587,0.07199428,-9.178518,0,0,29.6185,1,1,760,800
28916,25:29.5,IMU,80725197,0,-0.000875723,0.006428798,0.000105829,0.7643001,0.07281878,-9.168251,0,0,29.62055,1,1,1000,1000
28917,25:29.5,IMU,80725197,1,-0.000844391,0.006496169,0.000162854,0.7643919,0.06806234,-9.168858,0,0,29.62055,1,1,760,800
29016,25:29.6,IMU,80765181,0,0.001623642,0.004142888,0.000197142,0.7665394,0.07186042,-9.160248,0,0,29.6226,1,1,1000,1000
29017,25:29.6,IMU,80765181,1,0.001677697,0.0040637,0.000188304,0.7660295,0.07185385,-9.159104,0,0,29.6226,1,1,760,800
29071,25:29.6,IMU,80805165,0,-0.000503202,0.006293769,0.000121509,0.7664268,0.07261349,-9.144541,0,0,29.62465,1,1,1000,1000
29072,25:29.6,IMU,80805165,1,-0.000160974,0.006287488,4.44109E-05,0.7665006,0.07285769,-9.142244,0,0,29.62465,1,1,760,800
29169,25:29.7,IMU,80845149,0,0.000586282,0.005359351,0.000264549,0.7678241,0.07340982,-9.140037,0,0,29.6267,1,1,1000,1000
29170,25:29.7,IMU,80845149,1,0.000600518,0.005192414,0.000216063,0.7666899,0.0727173,-9.138268,0,0,29.6267,1,1,760,800
29220,25:29.7,IMU,80885133,0,-0.001947635,0.007871063,0.000122235,0.7686327,0.07360605,-9.115286,0,0,29.62875,1,1,1000,1000
29221,25:29.7,IMU,80885133,1,-0.001871852,0.007894966,0.000141358,0.7713511,0.07291353,-9.117428,0,0,29.62875,1,1,760,800
29272,25:29.7,IMU,80925117,0,0.003014862,0.006363505,0.000100098,0.7696092,0.07313461,-9.093565,0,0,29.6308,1,1,1000,1000
29273,25:29.7,IMU,80925117,1,0.003217598,0.006306305,0.000188304,0.768531,0.07408209,-9.094306,0,0,29.6308,1,1,760,800
29371,25:29.8,IMU,80965101,0,0.001376928,0.006532129,1.885652E-05,0.7691566,0.07343075,-9.076344,0,0,29.63285,1,1,1000,1000
29372,25:29.8,IMU,80965101,1,0.001434654,0.006366733,-3.11E-05,0.7678136,0.07562862,-9.075527,0,0,29.63285,1,1,760,800
29425,25:29.8,IMU,81005085,0,0.002564093,0.006339603,9.417134E-05,0.7710413,0.07321231,-9.07421,0,0,29.6349,1,1,1000,1000
29426,25:29.8,IMU,81005085,1,0.002642458,0.00629599,5.869289E-05,0.7709256,0.07232829,-9.073456,0,0,29.6349,1,1,760,800
29525,25:29.9,IMU,81045069,0,-0.000141913,0.005956529,0.000102479,0.7714872,0.07458778,-9.077181,0,0,29.63694,1,1,1000,1000
29526,25:29.9,IMU,81045069,1,-0.000155973,0.005808221,0.000150757,0.7729753,0.07452373,-9.075638,0,0,29.63694,1,1,760,800
29576,25:29.9,IMU,81085053,0,-0.000260471,0.005828091,-0.000168157,0.7734174,0.07409591,-9.077289,0,0,29.63905,1,1,1000,1000
29577,25:29.9,IMU,81085053,1,-0.000304377,0.005751858,-0.000175128,0.7753747,0.07519138,-9.076859,0,0,29.63905,1,1,760,800
29628,25:29.9,IMU,81125037,0,0.00058907,0.003298537,-9.60E-05,0.7740345,0.07479652,-9.096684,0,0,29.64109,1,1,1000,1000
29629,25:29.9,IMU,81125037,1,0.000484661,0.003202808,-0.000251161,0.7739502,0.07054414,-9.096733,0,0,29.64109,1,1,760,800
29727,25:30.0,IMU,81165021,0,0.000644034,0.002797422,-2.72E-05,0.7767362,0.07539321,-9.120627,0,0,29.64314,1,1,1000,1000
29728,25:30.0,IMU,81165021,1,0.000665497,0.002781776,-5.47E-05,0.7797526,0.0735098,-9.119859,0,0,29.64314,1,1,760,800
29782,25:30.0,IMU,81205005,0,0.001729785,0.002139706,3.212386E-05,0.77777,0.07394094,-9.146477,0,0,29.64519,1,1,1000,1000
29783,25:30.0,IMU,81205005,1,0.001789452,0.002169958,6.97205E-05,0.7773904,0.07735431,-9.14777,0,0,29.64519,1,1,760,800
29881,25:30.1,IMU,81244989,0,0.002638957,0.00399214,0.000196349,0.7819449,0.07567248,-9.187484,0,0,29.64718,1,1,1000,1000
29882,25:30.1,IMU,81244989,1,0.00253121,0.003986068,0.000170718,0.780202,0.07532895,-9.185638,0,0,29.64718,1,1,760,800
29932,25:30.1,IMU,81284973,0,0.000589204,0.001809075,0.000179401,0.7821158,0.0755702,-9.22473,0,0,29.64923,1,1,1000,1000
29933,25:30.1,IMU,81284973,1,0.00064807,0.00160449,8.017186E-05,0.7812296,0.07512935,-9.224028,0,0,29.64923,1,1,760,800
29984,25:30.1,IMU,81324957,0,0.002960136,0.003106541,0.000303942,0.7840527,0.07560898,-9.270014,0,0,29.65128,1,1,1000,1000
29985,25:30.1,IMU,81324957,1,0.002738865,0.003206168,0.000263652,0.7844068,0.07957801,-9.270768,0,0,29.65128,1,1,760,800
30085,25:30.2,IMU,81364941,0,0.000642847,0.001755857,0.000306823,0.7869933,0.07585211,-9.316582,0,0,29.65332,1,1,1000,1000
30086,25:30.2,IMU,81364941,1,0.000665699,0.001767861,0.000400082,0.7885276,0.07567493,-9.319485,0,0,29.65332,1,1,760,800
30139,25:30.2,IMU,81404925,0,-0.001150741,-0.000797655,0.000245468,0.7884906,0.07805233,-9.365025,0,0,29.65537,1,1,1000,1000
30140,25:30.2,IMU,81404925,1,-0.001304587,-0.000852983,0.000208989,0.7874739,0.07605405,-9.363878,0,0,29.65537,1,1,760,800
30239,25:30.3,IMU,81444909,0,0.004262057,0.000889801,0.00048489,0.7911094,0.07767224,-9.40915,0,0,29.65742,1,1,1000,1000
30240,25:30.3,IMU,81444909,1,0.004353022,0.000784227,0.000460442,0.7887877,0.07774941,-9.40772,0,0,29.65742,1,1,760,800
30292,25:30.3,IMU,81484893,0,0.000874031,-0.00010921,0.000613268,0.7927644,0.07865405,-9.451892,0,0,29.65946,1,1,1000,1000
30293,25:30.3,IMU,81484893,1,0.001244336,1.912972E-06,0.000414478,0.7933908,0.07779785,-9.452765,0,0,29.65946,1,1,760,800
30344,25:30.3,IMU,81524877,0,0.001338577,-0.001367102,0.000685807,0.7940615,0.07819743,-9.49702,0,0,29.66151,1,1,1000,1000
30345,25:30.3,IMU,81524877,1,0.001479508,-0.001525078,0.000690981,0.7920432,0.07758924,-9.497992,0,0,29.66151,1,1,760,800
30445,25:30.4,IMU,81564861,0,0.000849524,-0.000634296,0.000606468,0.7946892,0.07855566,-9.546908,0,0,29.66355,1,1,1000,1000
30446,25:30.4,IMU,81564861,1,0.000916001,-0.000622041,0.000631169,0.7959737,0.07610244,-9.54795,0,0,29.66355,1,1,760,800
30500,25:30.4,IMU,81604845,0,0.005143845,-0.00416643,0.000713903,0.7974256,0.07938311,-9.587536,0,0,29.6656,1,1,1000,1000
30501,25:30.4,IMU,81604845,1,0.005064478,-0.004267914,0.000713739,0.7971993,0.0778641,-9.586727,0,0,29.6656,1,1,760,800
30599,25:30.5,IMU,81644829,0,0.001006245,-0.002407056,0.000674759,0.7994888,0.07826168,-9.62858,0,0,29.66764,1,1,1000,1000
30600,25:30.5,IMU,81644829,1,0.000989134,-0.002370656,0.000770027,0.7980639,0.08134905,-9.627859,0,0,29.66764,1,1,760,800
30651,25:30.5,IMU,81684813,0,0.003647847,-0.004226143,0.000676683,0.8002958,0.07912263,-9.658123,0,0,29.66969,1,1,1000,1000
30652,25:30.5,IMU,81684813,1,0.003549083,-0.004334885,0.000547383,0.8005232,0.07724129,-9.658918,0,0,29.66969,1,1,760,800
30703,25:30.5,IMU,81724797,0,0.001544261,-0.003988997,0.000664703,0.8007571,0.08035068,-9.699639,0,0,29.67173,1,1,1000,1000
30704,25:30.5,IMU,81724797,1,0.001639243,-0.00407636,0.000660877,0.8054983,0.07890842,-9.70231,0,0,29.67173,1,1,760,800
30803,25:30.6,IMU,81764781,0,0.002724097,-0.006193977,0.000634556,0.8030365,0.07947804,-9.724596,0,0,29.67377,1,1,1000,1000
30804,25:30.6,IMU,81764781,1,0.00281953,-0.006420374,0.000690268,0.8034774,0.08276459,-9.72472,0,0,29.67377,1,1,760,800
30858,25:30.6,IMU,81804765,0,0.001594518,-0.002862648,0.000611344,0.8038279,0.07919762,-9.7592,0,0,29.67582,1,1,1000,1000
30859,25:30.6,IMU,81804765,1,0.001516042,-0.002956361,0.000575004,0.8046173,0.08014685,-9.760591,0,0,29.67582,1,1,760,800
30956,25:30.7,IMU,81844749,0,0.002560352,-0.003925192,0.000511095,0.8043396,0.08087628,-9.789589,0,0,29.67786,1,1,1000,1000
30957,25:30.7,IMU,81844749,1,0.002699975,-0.003883826,0.000617595,0.8060924,0.08179051,-9.78956,0,0,29.67786,1,1,760,800
31007,25:30.7,IMU,81884733,0,0.003471946,-0.005877126,0.000569881,0.8050739,0.08010146,-9.810003,0,0,29.6799,1,1,1000,1000
31008,25:30.7,IMU,81884733,1,0.003587543,-0.006077821,0.000544895,0.8052593,0.07960996,-9.808697,0,0,29.6799,1,1,760,800
31059,25:30.7,IMU,81924717,0,0.004147224,-0.004334318,0.000667891,0.8069816,0.07888129,-9.823748,0,0,29.68194,1,1,1000,1000
31060,25:30.7,IMU,81924717,1,0.004393271,-0.004348707,0.00047904,0.8080598,0.07969698,-9.824413,0,0,29.68194,1,1,760,800
31158,25:30.8,IMU,81964701,0,0.001012038,-0.004887416,0.000552044,0.8074042,0.0815616,-9.852169,0,0,29.68399,1,1,1000,1000
31159,25:30.8,IMU,81964701,1,0.001058954,-0.00500992,0.000675551,0.8074299,0.08076469,-9.852146,0,0,29.68399,1,1,760,800
31212,25:30.8,IMU,82004685,0,0.002944892,-0.004447066,0.000651544,0.8054165,0.08049343,-9.85711,0,0,29.68603,1,1,1000,1000
31213,25:30.8,IMU,82004685,1,0.002992853,-0.004589586,0.000690868,0.808704,0.08034532,-9.855938,0,0,29.68603,1,1,760,800
31312,25:30.9,IMU,82044669,0,0.002768891,-0.004763353,0.000667404,0.8063986,0.08156951,-9.856739,0,0,29.68807,1,1,1000,1000
31313,25:30.9,IMU,82044669,1,0.002763912,-0.005018424,0.000622682,0.8082095,0.07740154,-9.856522,0,0,29.68807,1,1,760,800
31363,25:30.9,IMU,82084653,0,0.00219848,-0.005429481,0.000638383,0.8069005,0.07992645,-9.888084,0,0,29.69011,1,1,1000,1000
31364,25:30.9,IMU,82084653,1,0.002110258,-0.005540584,0.000568343,0.8099022,0.08149764,-9.886906,0,0,29.69011,1,1,760,800
31415,25:30.9,IMU,82124637,0,0.00256019,-0.00486747,0.000644266,0.809022,0.08174935,-9.887587,0,0,29.69215,1,1,1000,1000
31416,25:30.9,IMU,82124637,1,0.002620758,-0.004932987,0.000726209,0.8096638,0.08129175,-9.884886,0,0,29.69215,1,1,760,800
31514,25:31.0,IMU,82164621,0,0.002476608,-0.004397504,0.000723105,0.8064166,0.07980743,-9.886616,0,0,29.69419,1,1,1000,1000
31515,25:31.0,IMU,82164621,1,0.002446691,-0.004294126,0.000701269,0.8080502,0.08237928,-9.885428,0,0,29.69419,1,1,760,800
31569,25:31.0,IMU,82204605,0,0.002363607,-0.00396681,0.000758703,0.8076613,0.08085157,-9.885262,0,0,29.69624,1,1,1000,1000
31570,25:31.0,IMU,82204605,1,0.002544114,-0.004191808,0.000777511,0.8064848,0.08103592,-9.885,0,0,29.69624,1,1,760,800
31667,25:31.1,IMU,82244589,0,0.002293026,-0.003526757,0.000684562,0.8070728,0.08119331,-9.883257,0,0,29.69827,1,1,1000,1000
31668,25:31.1,IMU,82244589,1,0.002257831,-0.003589256,0.00074208,0.8113937,0.07898946,-9.884506,0,0,29.69827,1,1,760,800
31719,25:31.1,IMU,82285406,0,0.002206181,-0.003150686,0.000850773,0.8060813,0.08080584,-9.882339,0,0,29.70037,1,1,1000,1000
31720,25:31.1,IMU,82285406,1,0.002228127,-0.003302362,0.000783,0.8044029,0.07949354,-9.883716,0,0,29.70032,1,1,760,800
31771,25:31.1,IMU,82325390,0,0.002157177,-0.00476326,0.000779231,0.8059484,0.08041158,-9.883636,0,0,29.7024,1,1,1000,1000
31772,25:31.1,IMU,82325390,1,0.001997116,-0.004562296,0.000814513,0.8061305,0.07820097,-9.884843,0,0,29.70235,1,1,760,800
31870,25:31.2,IMU,82365374,0,0.002068971,-0.00422811,0.000908371,0.8077508,0.0810381,-9.882877,0,0,29.70444,1,1,1000,1000
31871,25:31.2,IMU,82365374,1,0.002279782,-0.004245423,0.000865452,0.805791,0.07978135,-9.885247,0,0,29.7044,1,1,760,800
31924,25:31.2,IMU,82405358,0,0.001965602,-0.003766192,0.000827074,0.8064807,0.08149425,-9.881026,0,0,29.70648,1,1,1000,1000
31925,25:31.2,IMU,82405358,1,0.001962433,-0.003845729,0.000719822,0.8051965,0.07887459,-9.880043,0,0,29.70643,1,1,760,800
32024,25:31.3,IMU,82445342,0,0.001944522,-0.003409488,0.00084862,0.8039157,0.08063613,-9.880472,0,0,29.70852,1,1,1000,1000
32025,25:31.3,IMU,82445342,1,0.001787594,-0.003387902,0.000930098,0.8054454,0.08178402,-9.879965,0,0,29.70847,1,1,760,800
32078,25:31.3,IMU,82485326,0,0.001852888,-0.00304304,0.000930496,0.8043862,0.07990588,-9.878257,0,0,29.71056,1,1,1000,1000
32079,25:31.3,IMU,82485326,1,0.001899279,-0.00317474,0.000722823,0.8054742,0.07781904,-9.879459,0,0,29.71051,1,1,760,800
32130,25:31.3,IMU,82525310,0,0.002956677,-0.002698958,0.000864487,0.8039742,0.08124855,-9.87356,0,0,29.7126,1,1,1000,1000
32131,25:31.3,IMU,82525310,1,0.002978965,-0.002755336,0.000896058,0.8015917,0.08178511,-9.873894,0,0,29.71255,1,1,760,800
32231,25:31.4,IMU,82565294,0,0.001985763,-0.003731967,0.000663892,0.8026209,0.08055033,-9.856094,0,0,29.71464,1,1,1000,1000
32232,25:31.4,IMU,82565294,1,0.001764303,-0.003791104,0.000561291,0.8012248,0.0806275,-9.855564,0,0,29.71459,1,1,760,800
32285,25:31.4,IMU,82605278,0,0.001518768,-0.00325795,0.000598104,0.8024814,0.08025992,-9.848925,0,0,29.71668,1,1,1000,1000
32286,25:31.4,IMU,82605278,1,0.001521628,-0.003188081,0.000551392,0.8033321,0.07963267,-9.849335,0,0,29.71663,1,1,760,800
32384,25:31.5,IMU,82645262,0,0.001511498,-9.35E-05,0.000454695,0.8020524,0.08044913,-9.844273,0,0,29.71871,1,1,1000,1000
32385,25:31.5,IMU,82645262,1,0.001605288,-0.000181328,0.000613746,0.8021393,0.08070337,-9.8426,0,0,29.71866,1,1,760,800
32435,25:31.5,IMU,82685246,0,0.001435752,-0.000689136,0.0005727,0.8022501,0.07959299,-9.841909,0,0,29.72075,1,1,1000,1000
32436,25:31.5,IMU,82685246,1,0.001470516,-0.000728897,0.000628534,0.8027135,0.08038594,-9.842701,0,0,29.7207,1,1,760,800
32488,25:31.5,IMU,82725230,0,0.001515178,-0.000498118,0.000579812,0.8004966,0.08089476,-9.841411,0,0,29.72274,1,1,1000,1000
32489,25:31.5,IMU,82725230,1,0.001477845,-0.000535196,0.000551808,0.8018833,0.08283775,-9.840679,0,0,29.72274,1,1,760,800
32588,25:31.6,IMU,82765214,0,0.001427186,-0.000405169,0.000653596,0.8009086,0.07982674,-9.841962,0,0,29.72477,1,1,1000,1000
32589,25:31.6,IMU,82765214,1,0.001516467,-0.000516785,0.000578067,0.7984306,0.07878697,-9.8409,0,0,29.72477,1,1,760,800
32643,25:31.6,IMU,82805198,0,0.003113256,-0.000361174,0.000719965,0.799204,0.08060017,-9.820955,0,0,29.72681,1,1,1000,1000
32644,25:31.6,IMU,82805198,1,0.002762237,-7.74E-05,0.000780498,0.7996458,0.08084395,-9.818697,0,0,29.72681,1,1,760,800
32743,25:31.7,IMU,82845182,0,0.005655327,-0.001962093,0.000842288,0.7990975,0.08001346,-9.81834,0,0,29.72885,1,1,1000,1000
32744,25:31.7,IMU,82845182,1,0.005541335,-0.00184957,0.000864321,0.8000219,0.08004703,-9.819216,0,0,29.72885,1,1,760,800
32795,25:31.7,IMU,82885166,0,0.004157581,0.001008593,0.00098476,0.7991353,0.08019049,-9.808984,0,0,29.73088,1,1,1000,1000
32796,25:31.7,IMU,82885166,1,0.004385489,0.000952117,0.000820494,0.7991813,0.07862584,-9.810469,0,0,29.73088,1,1,760,800
32847,25:31.7,IMU,82925150,0,0.000769093,0.000985516,0.000987919,0.7972037,0.08055632,-9.806223,0,0,29.73292,1,1,1000,1000
32848,25:31.7,IMU,82925150,1,0.000719779,0.000893136,0.001137115,0.7983515,0.08027788,-9.809368,0,0,29.73292,1,1,760,800
32946,25:31.8,IMU,82965134,0,0.000945368,0.000978451,0.00098908,0.7964526,0.07936037,-9.806344,0,0,29.73495,1,1,1000,1000
32947,25:31.8,IMU,82965134,1,0.000904594,0.000907725,0.000944509,0.7981949,0.07929408,-9.804136,0,0,29.73495,1,1,760,800
33000,25:31.8,IMU,83005118,0,0.000966079,0.001025789,0.001012487,0.7972279,0.08103616,-9.805994,0,0,29.73699,1,1,1000,1000
33001,25:31.8,IMU,83005118,1,0.000903074,0.000990577,0.000804857,0.7974227,0.07761236,-9.806053,0,0,29.73699,1,1,760,800
33100,25:31.9,IMU,83045102,0,0.001700758,0.000990971,0.001061595,0.796272,0.07985881,-9.803697,0,0,29.73903,1,1,1000,1000
33101,25:31.9,IMU,83045102,1,0.001702526,0.0009199,0.001041483,0.7951213,0.07921186,-9.805766,0,0,29.73903,1,1,760,800
33151,25:31.9,IMU,83085086,0,0.005507333,0.001673811,0.001100189,0.7956368,0.07995843,-9.784366,0,0,29.74106,1,1,1000,1000
33152,25:31.9,IMU,83085086,1,0.00568857,0.001721291,0.001276379,0.7960114,0.07933486,-9.783517,0,0,29.74106,1,1,760,800
33203,25:31.9,IMU,83125070,0,0.003090933,-0.00025304,0.001340468,0.7949334,0.08063588,-9.792297,0,0,29.74309,1,1,1000,1000
33204,25:31.9,IMU,83125070,1,0.003159325,-5.24E-05,0.001227585,0.7954223,0.07962182,-9.790371,0,0,29.74309,1,1,760,800
33302,25:32.0,IMU,83165054,0,0.000786008,-0.000819339,0.001325284,0.795479,0.079393,-9.789509,0,0,29.74518,1,1,1000,1000
33303,25:32.0,IMU,83165054,1,0.000709517,-0.000851446,0.001307511,0.7966563,0.08061659,-9.79176,0,0,29.74518,1,1,760,800
33356,25:32.0,IMU,83205038,0,-0.000389834,-0.001594551,0.001327686,0.7939184,0.07976176,-9.788699,0,0,29.74721,1,1,1000,1000
33357,25:32.0,IMU,83205038,1,-0.000204602,-0.001645705,0.001336882,0.7954673,0.07759551,-9.791665,0,0,29.74721,1,1,760,800
33455,25:32.1,IMU,83245022,0,1.200664E-06,-0.001385144,0.001341319,0.7938299,0.07894617,-9.788611,0,0,29.74925,1,1,1000,1000
33456,25:32.1,IMU,83245022,1,7.855287E-05,-0.001320363,0.001408619,0.7941489,0.07949742,-9.78931,0,0,29.74925,1,1,760,800
33507,25:32.1,IMU,83285006,0,0.000736798,-0.000486523,0.00132336,0.7944423,0.07832803,-9.788765,0,0,29.75128,1,1,1000,1000
33508,25:32.1,IMU,83285006,1,0.000798034,-0.000368429,0.001289175,0.7952029,0.07949007,-9.786877,0,0,29.75128,1,1,760,800
33559,25:32.1,IMU,83324990,0,0.003946013,0.003541608,0.001379492,0.7950093,0.0792807,-9.788942,0,0,29.75326,1,1,1000,1000
33560,25:32.1,IMU,83324990,1,0.003959856,0.003495554,0.001497926,0.7935925,0.08120815,-9.790085,0,0,29.75326,1,1,760,800
33658,25:32.2,IMU,83364974,0,0.004664883,0.004242545,0.001467382,0.793033,0.08039199,-9.788086,0,0,29.75529,1,1,1000,1000
33659,25:32.2,IMU,83364974,1,0.00450798,0.004199777,0.001527998,0.7924693,0.07739095,-9.788288,0,0,29.75529,1,1,760,800
33712,25:32.2,IMU,83404958,0,0.003365593,0.002603706,0.00146163,0.7930325,0.07894929,-9.785805,0,0,29.75733,1,1,1000,1000
33713,25:32.2,IMU,83404958,1,0.00356349,0.002444282,0.001633946,0.7919773,0.07967179,-9.78541,0,0,29.75733,1,1,760,800
33812,25:32.3,IMU,83444942,0,0.001896034,0.002110705,0.001433324,0.7918198,0.07985136,-9.790335,0,0,29.75936,1,1,1000,1000
33813,25:32.3,IMU,83444942,1,0.001928628,0.002036424,0.001408841,0.79409,0.08146905,-9.787568,0,0,29.75936,1,1,760,800
33865,25:32.3,IMU,83484926,0,0.00258843,0.002360047,0.001568952,0.7920454,0.08083873,-9.78451,0,0,29.76139,1,1,1000,1000
33866,25:32.3,IMU,83484926,1,0.002728911,0.00217247,0.001399267,0.7934117,0.07732776,-9.785594,0,0,29.76139,1,1,760,800
33917,25:32.3,IMU,83524910,0,0.002481669,0.002996634,0.001636397,0.7915818,0.07961461,-9.790224,0,0,29.76342,1,1,1000,1000
33918,25:32.3,IMU,83524910,1,0.002541207,0.003156264,0.001619573,0.7939428,0.08224855,-9.788767,0,0,29.76342,1,1,760,800
34018,25:32.4,IMU,83564894,0,0.001910881,0.000754994,0.001684535,0.7909134,0.07965212,-9.787048,0,0,29.76545,1,1,1000,1000
34019,25:32.4,IMU,83564894,1,0.001837144,0.000705945,0.001723439,0.7915548,0.07880041,-9.788321,0,0,29.76545,1,1,760,800
34072,25:32.4,IMU,83604878,0,-0.001176659,0.001843101,0.001761074,0.7918501,0.07951555,-9.781025,0,0,29.76749,1,1,1000,1000
34073,25:32.4,IMU,83604878,1,-0.001020605,0.001805143,0.001641273,0.793521,0.07989677,-9.781,0,0,29.76749,1,1,760,800
34171,25:32.5,IMU,83644862,0,-0.001427194,0.003599006,0.001930836,0.7906692,0.07964097,-9.79045,0,0,29.76952,1,1,1000,1000
34172,25:32.5,IMU,83644862,1,-0.001445442,0.003576069,0.002058779,0.7889283,0.08004409,-9.791529,0,0,29.76952,1,1,760,800
34222,25:32.5,IMU,83684846,0,-0.000315955,0.005047026,0.001978104,0.7905018,0.07969325,-9.790247,0,0,29.77155,1,1,1000,1000
34223,25:32.5,IMU,83684846,1,-0.000382358,0.005001997,0.002032011,0.7915494,0.07810214,-9.789781,0,0,29.77155,1,1,760,800
34274,25:32.5,IMU,83724830,0,-0.000208339,0.004730529,0.001976057,0.7912067,0.07968511,-9.786016,0,0,29.77358,1,1,1000,1000
34275,25:32.5,IMU,83724830,1,-0.000220064,0.004787054,0.002084007,0.7917622,0.07852757,-9.785343,0,0,29.77358,1,1,760,800
34374,25:32.6,IMU,83764814,0,-0.000389951,0.005174733,0.002003416,0.7891213,0.07843961,-9.787811,0,0,29.77561,1,1,1000,1000
34375,25:32.6,IMU,83764814,1,-0.000164452,0.005320258,0.002079122,0.7897519,0.07824841,-9.78933,0,0,29.77561,1,1,760,800
34430,25:32.6,IMU,83804798,0,0.000256791,0.002547606,0.002032037,0.7888362,0.07927568,-9.789127,0,0,29.77764,1,1,1000,1000
34431,25:32.6,IMU,83804798,1,7.613351E-05,0.002575141,0.00204749,0.7907014,0.07745867,-9.788238,0,0,29.77764,1,1,760,800
34528,25:32.7,IMU,83844782,0,0.001069429,0.00259418,0.002116054,0.7900945,0.07857705,-9.78841,0,0,29.77967,1,1,1000,1000
34529,25:32.7,IMU,83844782,1,0.001063345,0.002542367,0.0021862,0.792529,0.0786622,-9.785101,0,0,29.77967,1,1,760,800
34579,25:32.7,IMU,83884766,0,0.001840515,0.00294251,0.002103818,0.7898209,0.07753361,-9.789412,0,0,29.7817,1,1,1000,1000
34580,25:32.7,IMU,83884766,1,0.001816505,0.003227327,0.002320809,0.7891089,0.07907829,-9.788555,0,0,29.7817,1,1,760,800
34631,25:32.7,IMU,83924750,0,0.000941585,-0.000645605,0.002048047,0.7882333,0.07896584,-9.786002,0,0,29.78373,1,1,1000,1000
34632,25:32.7,IMU,83924750,1,0.000772867,-0.000691175,0.002090794,0.7911561,0.07827092,-9.786894,0,0,29.78373,1,1,760,800
34730,25:32.8,IMU,83964734,0,0.000982134,-0.000385391,0.00209221,0.7892955,0.07795738,-9.786941,0,0,29.78575,1,1,1000,1000
34731,25:32.8,IMU,83964734,1,0.001271844,-0.000463086,0.00206222,0.7890396,0.07855663,-9.786221,0,0,29.78575,1,1,760,800
34784,25:32.8,IMU,84004718,0,0.000922051,0.000547372,0.002176122,0.7899091,0.07861693,-9.785892,0,0,29.78778,1,1,1000,1000
34785,25:32.8,IMU,84004718,1,0.000701754,0.000545301,0.002122732,0.7906888,0.07866826,-9.787174,0,0,29.78778,1,1,760,800
34884,25:32.9,IMU,84044702,0,0.001420402,0.002438876,0.002285407,0.7896827,0.07850263,-9.788034,0,0,29.78981,1,1,1000,1000
34885,25:32.9,IMU,84044702,1,0.001481953,0.002605499,0.002292642,0.7888481,0.07999758,-9.786926,0,0,29.78981,1,1,760,800
34935,25:32.9,IMU,84084686,0,0.002828787,0.002065145,0.002361682,0.7882119,0.07759483,-9.784,0,0,29.79184,1,1,1000,1000
34936,25:32.9,IMU,84084686,1,0.002772267,0.001896144,0.002226346,0.7903614,0.07917042,-9.783875,0,0,29.79184,1,1,760,800
34988,25:32.9,IMU,84124670,0,0.003441309,0.003986621,0.002406873,0.7887551,0.07850865,-9.788446,0,0,29.79387,1,1,1000,1000
34989,25:32.9,IMU,84124670,1,0.003457907,0.004008368,0.002635792,0.7891838,0.07751698,-9.790402,0,0,29.79387,1,1,760,800
35087,25:33.0,IMU,84164654,0,0.00259978,0.00519247,0.002410875,0.7888525,0.07735758,-9.784545,0,0,29.79589,1,1,1000,1000
35088,25:33.0,IMU,84164654,1,0.002455575,0.005246085,0.002382158,0.790051,0.07817535,-9.786047,0,0,29.79589,1,1,760,800
35141,25:33.0,IMU,84204638,0,0.00205282,0.002332827,0.002335441,0.789175,0.07715493,-9.783569,0,0,29.79792,1,1,1000,1000
35142,25:33.0,IMU,84204638,1,0.001994071,0.002191192,0.002372764,0.7893381,0.07788017,-9.784826,0,0,29.79792,1,1,760,800
35240,25:33.1,IMU,84244622,0,0.001338448,0.001455543,0.002413644,0.7886223,0.07769906,-9.784332,0,0,29.79995,1,1,1000,1000
35241,25:33.1,IMU,84244622,1,0.00131737,0.001416953,0.002375811,0.7888238,0.07619017,-9.785359,0,0,29.79995,1,1,760,800
35292,25:33.1,IMU,84284606,0,-0.000125288,0.002515974,0.002415698,0.7879528,0.07866299,-9.782328,0,0,29.80197,1,1,1000,1000
35293,25:33.1,IMU,84284606,1,-8.08E-05,0.002459002,0.002271349,0.787102,0.07693648,-9.778123,0,0,29.80197,1,1,760,800
35344,25:33.1,IMU,84324590,0,-0.000977692,0.001825606,0.00252875,0.789282,0.07687217,-9.777744,0,0,29.804,1,1,1000,1000
35345,25:33.1,IMU,84324590,1,-0.001024676,0.001943625,0.002720407,0.7894077,0.07751872,-9.778944,0,0,29.804,1,1,760,800
35443,25:33.2,IMU,84365407,0,-0.002052922,0.001836141,0.002616166,0.7875503,0.07758506,-9.778469,0,0,29.80608,1,1,1000,1000
35444,25:33.2,IMU,84365407,1,-0.001896551,0.001700482,0.002569456,0.7898841,0.0771783,-9.777821,0,0,29.80603,1,1,760,800
35497,25:33.2,IMU,84405391,0,-0.000809178,0.001781092,0.002708833,0.7866137,0.07702775,-9.774952,0,0,29.8081,1,1,1000,1000
35498,25:33.2,IMU,84405391,1,-0.000497739,0.001784494,0.002651791,0.7864562,0.07752092,-9.77258,0,0,29.80805,1,1,760,800
35597,25:33.3,IMU,84445375,0,0.00101108,0.001806659,0.002713852,0.7877833,0.07666656,-9.771983,0,0,29.81013,1,1,1000,1000
35598,25:33.3,IMU,84445375,1,0.001024088,0.001619504,0.002753787,0.7898036,0.07776587,-9.773072,0,0,29.81008,1,1,760,800
35650,25:33.3,IMU,84485359,0,0.001051096,0.002062892,0.00267702,0.7870066,0.07788485,-9.772049,0,0,29.81215,1,1,1000,1000
35651,25:33.3,IMU,84485359,1,0.001146226,0.001953616,0.002630855,0.7874849,0.07887581,-9.77183,0,0,29.8121,1,1,760,800
35702,25:33.3,IMU,84525343,0,0.001082969,0.002556793,0.002440892,0.7873337,0.0771127,-9.771134,0,0,29.81418,1,1,1000,1000
35703,25:33.3,IMU,84525343,1,0.000885356,0.002689405,0.0025839,0.787967,0.07776235,-9.773312,0,0,29.81413,1,1,760,800
35803,25:33.4,IMU,84565327,0,0.001037565,0.001567701,0.002346906,0.7859459,0.07803436,-9.77253,0,0,29.8162,1,1,1000,1000
35804,25:33.4,IMU,84565327,1,0.001119021,0.001723063,0.002479131,0.7860349,0.07812715,-9.772776,0,0,29.81615,1,1,760,800
35857,25:33.4,IMU,84605311,0,0.001096697,0.00245601,0.002206991,0.7877792,0.07732135,-9.772815,0,0,29.81823,1,1,1000,1000
35858,25:33.4,IMU,84605311,1,0.001205552,0.002568922,0.002403406,0.7870502,0.0785087,-9.771784,0,0,29.81818,1,1,760,800
35956,25:33.5,IMU,84645295,0,0.001117345,0.002233487,0.002143055,0.7864581,0.07738343,-9.772733,0,0,29.82025,1,1,1000,1000
35957,25:33.5,IMU,84645295,1,0.001289717,0.002254899,0.0018485,0.7904544,0.07571971,-9.774808,0,0,29.8202,1,1,760,800
36007,25:33.5,IMU,84685279,0,0.001101676,0.002179953,0.002027834,0.7871523,0.07771385,-9.771873,0,0,29.82227,1,1,1000,1000
36008,25:33.5,IMU,84685279,1,0.001184226,0.002066214,0.002230172,0.7878123,0.07925507,-9.771561,0,0,29.82222,1,1,760,800
36059,25:33.5,IMU,84725263,0,0.001123173,0.002106715,0.002016692,0.7866123,0.07681513,-9.772688,0,0,29.8243,1,1,1000,1000
36060,25:33.5,IMU,84725263,1,0.001150623,0.002008181,0.001970098,0.7866893,0.07388143,-9.770847,0,0,29.82425,1,1,760,800
36159,25:33.6,IMU,84765247,0,0.00115706,0.002007071,0.001882675,0.7877932,0.0768464,-9.771725,0,0,29.82632,1,1,1000,1000
36160,25:33.6,IMU,84765247,1,0.001165939,0.001967039,0.001991178,0.7875719,0.07604018,-9.771653,0,0,29.82627,1,1,760,800
36215,25:33.6,IMU,84805231,0,0.001143654,0.001924474,0.001853169,0.7876425,0.07549708,-9.772202,0,0,29.82829,1,1,1000,1000
36216,25:33.6,IMU,84805231,1,0.00112582,0.002046807,0.001926757,0.7872103,0.08044797,-9.774028,0,0,29.82829,1,1,760,800
36313,25:33.7,IMU,84845215,0,0.001134446,0.001876737,0.001811047,0.787487,0.07646739,-9.772906,0,0,29.83032,1,1,1000,1000
36314,25:33.7,IMU,84845215,1,0.001103646,0.00189427,0.001833451,0.7854342,0.07607426,-9.772509,0,0,29.83032,1,1,760,800
36364,25:33.7,IMU,84885199,0,0.001141297,0.001866126,0.001733811,0.787685,0.07728756,-9.772696,0,0,29.83234,1,1,1000,1000
36365,25:33.7,IMU,84885199,1,0.001147882,0.001732537,0.00195876,0.7886229,0.07713123,-9.7735,0,0,29.83234,1,1,760,800
36416,25:33.7,IMU,84925183,0,0.001223337,0.001755349,0.001710914,0.7863286,0.07617144,-9.772857,0,0,29.83436,1,1,1000,1000
36417,25:33.7,IMU,84925183,1,0.00088391,0.001671455,0.001573907,0.7898395,0.0763054,-9.773282,0,0,29.83436,1,1,760,800
36515,25:33.8,IMU,84965167,0,0.001144248,0.00175922,0.001718757,0.7874488,0.07634729,-9.772626,0,0,29.83638,1,1,1000,1000
36516,25:33.8,IMU,84965167,1,0.001214674,0.001745116,0.001789099,0.7876791,0.07594258,-9.774268,0,0,29.83638,1,1,760,800
36569,25:33.8,IMU,85005151,0,0.00114854,0.001972249,0.001569056,0.7866136,0.07671019,-9.771424,0,0,29.83841,1,1,1000,1000
36570,25:33.8,IMU,85005151,1,0.001149052,0.001809892,0.001728827,0.7884328,0.07406703,-9.771008,0,0,29.83841,1,1,760,800
36669,25:33.9,IMU,85045135,0,0.001106638,-8.41E-05,0.001810839,0.7864451,0.07700423,-9.768721,0,0,29.84043,1,1,1000,1000
36670,25:33.9,IMU,85045135,1,0.001390295,3.870009E-05,0.001714249,0.7855149,0.0784034,-9.766323,0,0,29.84043,1,1,760,800
36720,25:33.9,IMU,85085119,0,0.001166976,0.000971752,0.002013661,0.7868729,0.07671431,-9.767107,0,0,29.84245,1,1,1000,1000
