Unnamed: 0,Timestamp,Unnamed: 2,TimeUS,I,GyrX,GyrY,GyrZ,AccX,AccY,AccZ,EG,EA,T,GH,AH,GHz,AHz
1933,25:14.5,IMU,65645398,0,0.000902184,0.000975665,0.000909117,-0.000436771,-0.001627776,-9.817502,0,0,28.82777,1,1,1000,1000
1984,25:14.5,IMU,65685382,0,0.000904584,0.000928657,0.000890461,-0.001618373,-0.000186698,-9.818495,0,0,28.82993,1,1,1000,1000
2037,25:14.5,IMU,65725366,0,0.000971583,0.000861597,0.000970166,-0.001149017,-0.001069156,-9.817202,0,0,28.83208,1,1,1000,1000
2129,25:14.6,IMU,65765350,0,0.000925967,0.000944257,0.000899552,-0.001437568,-0.000952442,-9.817449,0,0,28.83424,1,1,1000,1000
2184,25:14.6,IMU,65805334,0,0.0008955,0.000980963,0.000883906,-0.000910965,-3.3e-05,-9.81712,0,0,28.83639,1,1,1000,1000
2279,25:14.7,IMU,65845318,0,0.000876665,0.000978286,0.000952609,-0.000705211,-0.000837516,-9.816685,0,0,28.83855,1,1,1000,1000
2330,25:14.7,IMU,65885302,0,0.000873022,0.000827752,0.000865102,-0.001089746,-0.000308899,-9.817474,0,0,28.8407,1,1,1000,1000
2383,25:14.7,IMU,65925286,0,0.000963064,0.000905737,0.00092607,-0.000537458,-0.000990348,-9.817886,0,0,28.84286,1,1,1000,1000
2478,25:14.8,IMU,65965270,0,0.000911941,0.000932544,0.000914381,-0.000341218,-0.001482163,-9.817921,0,0,28.84501,1,1,1000,1000
2533,25:14.8,IMU,66005254,0,0.000941995,0.000912577,0.000844596,-0.001003407,-0.001475006,-9.816901,0,0,28.84716,1,1,1000,1000
2630,25:14.9,IMU,66045238,0,0.000823371,0.000955193,0.000926626,-0.00165078,-0.000249336,-9.817495,0,0,28.84932,1,1,1000,1000
2681,25:14.9,IMU,66085222,0,0.000908404,0.000949732,0.000912432,-0.001278298,-0.002614901,-9.818682,0,0,28.85142,1,1,1000,1000
2734,25:14.9,IMU,66125206,0,0.000943338,0.000859227,0.000908264,-0.00044483,-0.000974012,-9.816919,0,0,28.85357,1,1,1000,1000
2831,25:15.0,IMU,66165190,0,0.00088483,0.000951348,0.000962599,-0.001028489,-0.001514926,-9.817533,0,0,28.85572,1,1,1000,1000
2886,25:15.0,IMU,66205174,0,0.000919382,0.000961355,0.000942773,-0.001257391,-0.000762869,-9.818627,0,0,28.85788,1,1,1000,1000
2980,25:15.1,IMU,66245158,0,0.000925263,0.000920739,0.000996372,-0.000421381,-0.001326644,-9.817919,0,0,28.86003,1,1,1000,1000
3030,25:15.1,IMU,66285142,0,0.000906544,0.000916059,0.000971443,-0.001373877,-0.001206823,-9.817187,0,0,28.86218,1,1,1000,1000
3083,25:15.1,IMU,66325126,0,0.000904956,0.000927027,0.000945421,-0.001085606,-0.000479439,-9.817383,0,0,28.86433,1,1,1000,1000
3177,25:15.2,IMU,66365110,0,0.000956297,0.000933141,0.000876877,-0.000803149,-0.001727389,-9.817407,0,0,28.86648,1,1,1000,1000
3231,25:15.2,IMU,66405094,0,0.000993221,0.000924747,0.000939896,-0.000792131,-0.000937562,-9.817413,0,0,28.86863,1,1,1000,1000
3327,25:15.3,IMU,66445078,0,0.000912949,0.00090468,0.0009508,-0.00042122,-0.002078401,-9.817936,0,0,28.87078,1,1,1000,1000
3380,25:15.3,IMU,66485062,0,0.000933598,0.000905182,0.000893694,-0.001897303,-0.000886485,-9.817626,0,0,28.87299,1,1,1000,1000
3433,25:15.3,IMU,66525046,0,0.000928858,0.000874157,0.000939286,-0.001218908,-0.001526948,-9.817975,0,0,28.87514,1,1,1000,1000
3530,25:15.4,IMU,66565030,0,0.000968535,0.000983069,0.000924876,-0.000401201,-0.00086539,-9.8173,0,0,28.87729,1,1,1000,1000
3587,25:15.4,IMU,66605014,0,0.000960686,0.00088944,0.000900321,-0.00103683,-0.000988251,-9.817203,0,0,28.87944,1,1,1000,1000
3681,25:15.5,IMU,66644998,0,0.001002696,0.000973621,0.000961893,-0.000846708,-0.0007185,-9.818369,0,0,28.88153,1,1,1000,1000
3732,25:15.5,IMU,66684982,0,0.000964063,0.000996804,0.00091126,-0.001223831,-0.001027661,-9.817644,0,0,28.88368,1,1,1000,1000
3785,25:15.5,IMU,66724966,0,0.000840045,0.000940916,0.000956068,-0.001382723,-0.001020489,-9.81848,0,0,28.88583,1,1,1000,1000
3883,25:15.6,IMU,66764950,0,0.000909549,0.00091253,0.00099718,-0.002051013,-0.001649236,-9.817276,0,0,28.88798,1,1,1000,1000
3938,25:15.6,IMU,66804934,0,0.000907076,0.000989208,0.000886212,-0.000808999,-0.000636414,-9.81708,0,0,28.89013,1,1,1000,1000
4033,25:15.7,IMU,66844918,0,0.00092348,0.000937494,0.000964716,-0.000475855,-0.001521689,-9.816664,0,0,28.89227,1,1,1000,1000
4085,25:15.7,IMU,66884902,0,0.000955574,0.000909599,0.000900814,-0.000482407,-0.000423519,-9.816527,0,0,28.89442,1,1,1000,1000
4138,25:15.7,IMU,66924886,0,0.00100846,0.001011667,0.000980552,-0.000129063,-0.001359074,-9.81664,0,0,28.89657,1,1,1000,1000
4233,25:15.8,IMU,66964870,0,0.000946222,0.001004212,0.000929572,-0.000731153,-0.000691444,-9.816357,0,0,28.89872,1,1,1000,1000
4288,25:15.8,IMU,67004854,0,0.000979883,0.000950093,0.001035983,-0.000916744,-0.000989612,-9.817087,0,0,28.90086,1,1,1000,1000
4383,25:15.9,IMU,67044838,0,0.000915393,0.000917921,0.000945874,-0.001182605,-0.000222079,-9.81918,0,0,28.90301,1,1,1000,1000
4436,25:15.9,IMU,67084822,0,0.000921976,0.00089016,0.000977058,-0.000225728,-0.000322425,-9.816875,0,0,28.90516,1,1,1000,1000
4489,25:15.9,IMU,67124806,0,0.000968254,0.000935141,0.001002396,-5.17e-05,-0.000854204,-9.818775,0,0,28.9073,1,1,1000,1000
4584,25:16.0,IMU,67164790,0,0.000866497,0.000916557,0.000832464,-0.000545989,-0.000956885,-9.817266,0,0,28.90945,1,1,1000,1000
4639,25:16.0,IMU,67204774,0,0.000870067,0.000999607,0.000880132,-0.000587055,-0.000520355,-9.816792,0,0,28.91159,1,1,1000,1000
4733,25:16.1,IMU,67244758,0,0.000881513,0.000979096,0.000913122,-0.000301357,-0.000948454,-9.817811,0,0,28.91374,1,1,1000,1000
4785,25:16.1,IMU,67284742,0,0.00097706,0.000908139,0.000946707,-0.000423702,-0.00094091,-9.817225,0,0,28.91588,1,1,1000,1000
4838,25:16.1,IMU,67324726,0,0.000968133,0.000951981,0.00090591,-0.00057151,-0.000227361,-9.816891,0,0,28.91803,1,1,1000,1000
4933,25:16.2,IMU,67364710,0,0.000973344,0.000989751,0.000904824,-0.000802691,-0.000780989,-9.817361,0,0,28.92017,1,1,1000,1000
4988,25:16.2,IMU,67404694,0,0.000975252,0.000963286,0.000970177,-0.001406818,2.698663e-05,-9.81708,0,0,28.92232,1,1,1000,1000
5084,25:16.3,IMU,67444678,0,0.00089938,0.000923718,0.000913586,-0.000907683,-9.47e-05,-9.816639,0,0,28.92446,1,1,1000,1000
5138,25:16.3,IMU,67484662,0,0.000909813,0.000873182,0.000900255,3.199348e-05,-0.000638509,-9.817449,0,0,28.9266,1,1,1000,1000
5191,25:16.3,IMU,67524646,0,0.000943727,0.001005754,0.000919167,-0.000870132,-0.00131929,-9.818079,0,0,28.92875,1,1,1000,1000
5288,25:16.4,IMU,67564630,0,0.000924006,0.000908317,0.000977035,-0.000488664,0.000472249,-9.816676,0,0,28.93089,1,1,1000,1000
5345,25:16.4,IMU,67604614,0,0.000972841,0.000923908,0.000867921,-0.000747104,-8.03e-05,-9.817454,0,0,28.93303,1,1,1000,1000
5440,25:16.5,IMU,67644598,0,0.000912861,0.000960401,0.001024723,-0.000481132,-0.001599703,-9.817478,0,0,28.93517,1,1,1000,1000
5492,25:16.5,IMU,67684582,0,0.000953698,0.000908405,0.000964934,-0.001064751,-0.00078881,-9.817801,0,0,28.93731,1,1,1000,1000
5544,25:16.5,IMU,67725399,0,0.000890024,0.00094035,0.000959675,-0.000928317,-0.000920936,-9.816586,0,0,28.93951,1,1,1000,1000
5640,25:16.6,IMU,67765383,0,0.000974247,0.000980121,0.000970717,-0.00047936,-0.001667006,-9.81832,0,0,28.94165,1,1,1000,1000
5695,25:16.6,IMU,67805367,0,0.000957515,0.000982849,0.000960056,-0.000623868,-0.001355318,-9.817069,0,0,28.94379,1,1,1000,1000
5789,25:16.7,IMU,67845351,0,0.001051162,0.000907873,0.000924051,-0.000943042,-0.000704094,-9.818467,0,0,28.94593,1,1,1000,1000
5842,25:16.7,IMU,67885335,0,0.00086767,0.000985901,0.000952646,-0.001802995,-0.002730226,-9.81766,0,0,28.94807,1,1,1000,1000
5895,25:16.7,IMU,67925319,0,0.000995729,0.000959184,0.001013839,-0.000544086,-0.000785247,-9.817001,0,0,28.95021,1,1,1000,1000
5989,25:16.8,IMU,67965303,0,0.000890836,0.000970093,0.00092301,-0.000419596,-0.000910974,-9.818528,0,0,28.95235,1,1,1000,1000
6045,25:16.8,IMU,68005287,0,0.000946679,0.000985441,0.000968527,-0.002045364,-0.001041088,-9.817471,0,0,28.95449,1,1,1000,1000
6141,25:16.9,IMU,68045271,0,0.000965039,0.00094224,0.000900574,-0.001800347,0.000458558,-9.818615,0,0,28.95663,1,1,1000,1000
6193,25:16.9,IMU,68085255,0,0.000930046,0.000884075,0.001099775,-0.001583359,-0.000837114,-9.817118,0,0,28.95877,1,1,1000,1000
6247,25:16.9,IMU,68125239,0,0.000973828,0.000961582,0.000977116,-0.001587666,-0.002005884,-9.817122,0,0,28.96091,1,1,1000,1000
6341,25:17.0,IMU,68165223,0,0.000996866,0.000993582,0.00098806,-0.001201982,-0.001526538,-9.818034,0,0,28.96299,1,1,1000,1000
6396,25:17.0,IMU,68205207,0,0.000913391,0.000886414,0.000947822,-0.00124207,-0.001451365,-9.818192,0,0,28.96513,1,1,1000,1000
6490,25:17.1,IMU,68245191,0,0.000943626,0.000989825,0.000944425,-0.002024777,-0.000970252,-9.816414,0,0,28.96727,1,1,1000,1000
6542,25:17.1,IMU,68285175,0,0.000933826,0.000905648,0.000948272,-0.001066882,-0.001102005,-9.817375,0,0,28.96941,1,1,1000,1000
6595,25:17.1,IMU,68325159,0,0.000935264,0.000999603,0.000954604,-0.001495496,9.13453e-05,-9.817055,0,0,28.97154,1,1,1000,1000
6691,25:17.2,IMU,68365143,0,0.000961868,0.000973032,0.000933344,-0.001656298,-0.001745376,-9.816757,0,0,28.97368,1,1,1000,1000
6746,25:17.2,IMU,68405127,0,0.000909387,0.000965184,0.000985447,-0.001244687,-0.000260314,-9.819212,0,0,28.97582,1,1,1000,1000
6841,25:17.3,IMU,68445111,0,0.00094225,0.000945994,0.000964285,-0.0006008,-0.001030006,-9.817255,0,0,28.97795,1,1,1000,1000
6895,25:17.3,IMU,68485095,0,0.000970113,0.000997596,0.000962158,0.000152136,-0.001202316,-9.817108,0,0,28.98009,1,1,1000,1000
6948,25:17.3,IMU,68525079,0,0.000931286,0.000931888,0.001017134,-0.000494106,-0.001023452,-9.817413,0,0,28.98223,1,1,1000,1000
7045,25:17.4,IMU,68565063,0,0.000956302,0.000938791,0.000847325,-0.00194479,-0.000716632,-9.817289,0,0,28.98442,1,1,1000,1000
7102,25:17.4,IMU,68605047,0,0.0008936,0.00102131,0.000921391,-0.001447353,-0.00038953,-9.81738,0,0,28.98655,1,1,1000,1000
7195,25:17.5,IMU,68645031,0,0.000931189,0.000978315,0.000956455,-0.002405967,-0.001590189,-9.817059,0,0,28.98869,1,1,1000,1000
7247,25:17.5,IMU,68685015,0,0.000891674,0.000911045,0.000985866,-0.001805049,0.000356885,-9.817082,0,0,28.99082,1,1,1000,1000
7300,25:17.5,IMU,68724999,0,0.000959214,0.00101673,0.000989492,-0.001132426,-0.000251296,-9.81711,0,0,28.9929,1,1,1000,1000
7396,25:17.6,IMU,68764983,0,0.000986714,0.001056548,0.000901749,-0.00046359,-0.000451924,-9.817963,0,0,28.99504,1,1,1000,1000
7451,25:17.6,IMU,68804967,0,0.000951114,0.000911333,0.001014656,-0.001171615,-0.002086049,-9.817226,0,0,28.99717,1,1,1000,1000
7545,25:17.7,IMU,68844951,0,0.000957586,0.001015413,0.000962207,-0.001925687,-0.000863733,-9.817864,0,0,28.9993,1,1,1000,1000
7597,25:17.7,IMU,68884935,0,0.0009121,0.000993234,0.00095045,-0.001364607,0.000162219,-9.817079,0,0,29.00144,1,1,1000,1000
7650,25:17.7,IMU,68924919,0,0.000883923,0.000920299,0.000957828,-0.000549204,-0.000651195,-9.818068,0,0,29.00357,1,1,1000,1000
7745,25:17.8,IMU,68964903,0,0.000947409,0.001016367,0.000974529,-0.001148282,-0.000648736,-9.81718,0,0,29.0057,1,1,1000,1000
7800,25:17.8,IMU,69004887,0,0.000942887,0.000941772,0.001010671,-0.001968791,-0.000250438,-9.818312,0,0,29.00784,1,1,1000,1000
7896,25:17.9,IMU,69044871,0,0.000891833,0.001057404,0.001011818,-0.001459212,-0.001321636,-9.817832,0,0,29.00997,1,1,1000,1000
7948,25:17.9,IMU,69084855,0,0.000997837,0.000977585,0.000968074,-0.002225856,-0.001680059,-9.817226,0,0,29.0121,1,1,1000,1000
8002,25:17.9,IMU,69124839,0,0.000933177,0.001075126,0.001005844,-0.002030285,-0.000696252,-9.817484,0,0,29.01423,1,1,1000,1000
8097,25:18.0,IMU,69164823,0,0.000993128,0.000982269,0.001020879,-0.000895548,-0.001320438,-9.817312,0,0,29.01636,1,1,1000,1000
8152,25:18.0,IMU,69204807,0,0.000955104,0.0010055,0.001014023,-0.000454575,-0.000173749,-9.818657,0,0,29.01849,1,1,1000,1000
8246,25:18.1,IMU,69244791,0,0.001029837,0.001033722,0.000964443,-0.000538052,-0.000589575,-9.81719,0,0,29.02062,1,1,1000,1000
8298,25:18.1,IMU,69284775,0,0.000981523,0.000984239,0.000963131,-0.00126163,-0.001472455,-9.817929,0,0,29.02275,1,1,1000,1000
8351,25:18.1,IMU,69324759,0,0.001005416,0.000957482,0.00101671,-0.001589728,-0.001453956,-9.817915,0,0,29.02489,1,1,1000,1000
8452,25:18.2,IMU,69364743,0,0.000982742,0.000948579,0.000968169,-0.000253237,-0.001121301,-9.817875,0,0,29.02701,1,1,1000,1000
8508,25:18.2,IMU,69404727,0,0.00095869,0.000989628,0.000940578,-0.001482198,-0.002362682,-9.817575,0,0,29.02914,1,1,1000,1000
8609,25:18.3,IMU,69444711,0,0.000970723,0.000991674,0.000893018,-0.001134984,-0.001378882,-9.817426,0,0,29.03127,1,1,1000,1000
8663,25:18.3,IMU,69484695,0,0.000951689,0.000935833,0.000950168,-0.000157772,-0.001278271,-9.817129,0,0,29.0334,1,1,1000,1000
8716,25:18.3,IMU,69524679,0,0.000974832,0.001062365,0.001017563,-0.001454457,-0.000970181,-9.818083,0,0,29.03553,1,1,1000,1000
8818,25:18.4,IMU,69564663,0,0.000855465,0.001014332,0.000973664,-0.000888986,-0.000518194,-9.817541,0,0,29.03766,1,1,1000,1000
8874,25:18.4,IMU,69604647,0,0.000934304,0.000996896,0.000955897,-0.000561671,-0.001889138,-9.817495,0,0,29.03979,1,1,1000,1000
8973,25:18.5,IMU,69644631,0,0.000932871,0.000966133,0.000956965,-0.001591472,-0.00094968,-9.816936,0,0,29.04192,1,1,1000,1000
9025,25:18.5,IMU,69684615,0,0.000974088,0.001053544,0.001001783,-0.001571837,-0.000894716,-9.817598,0,0,29.04404,1,1,1000,1000
9078,25:18.5,IMU,69724599,0,0.001074346,0.000929932,0.001037543,0.000953622,-0.000916201,-9.81767,0,0,29.04617,1,1,1000,1000
9179,25:18.6,IMU,69764583,0,0.001000553,0.001048257,0.000996111,-0.002316739,-0.001145127,-9.81814,0,0,29.0483,1,1,1000,1000
9233,25:18.6,IMU,69805400,0,0.000964118,0.000977898,0.000989759,-0.000604517,-0.000666726,-9.818196,0,0,29.05048,1,1,1000,1000
9332,25:18.7,IMU,69845384,0,0.00095889,0.000955215,0.000950246,4.231496e-05,-0.001781789,-9.817113,0,0,29.0526,1,1,1000,1000
9384,25:18.7,IMU,69885368,0,0.000962514,0.000914004,0.000947963,-0.001688595,-0.00135304,-9.817353,0,0,29.05473,1,1,1000,1000
9438,25:18.7,IMU,69925352,0,0.000964936,0.001014663,0.000986521,-0.001065073,-0.001685247,-9.817932,0,0,29.05685,1,1,1000,1000
9538,25:18.8,IMU,69965336,0,0.000995966,0.000998677,0.001012571,-0.001663565,-0.000623213,-9.817562,0,0,29.05898,1,1,1000,1000
9593,25:18.8,IMU,70005320,0,0.001061564,0.000948246,0.000954252,-0.001388595,4.460954e-05,-9.816976,0,0,29.06111,1,1,1000,1000
9694,25:18.9,IMU,70045304,0,0.000922101,0.001034467,0.000956208,-0.001057102,-0.00178435,-9.818815,0,0,29.06323,1,1,1000,1000
9746,25:18.9,IMU,70085288,0,0.000995453,0.000989097,0.000972667,-0.000523389,-0.001612081,-9.818458,0,0,29.06536,1,1,1000,1000
9800,25:18.9,IMU,70125272,0,0.000959006,0.000989408,0.001018577,-0.001929231,-0.00132961,-9.817271,0,0,29.06748,1,1,1000,1000
9899,25:19.0,IMU,70165256,0,0.000940315,0.000999842,0.001065195,0.000126032,8.823739e-05,-9.816409,0,0,29.0696,1,1,1000,1000
9954,25:19.0,IMU,70205240,0,0.001042835,0.001025906,0.000992435,-0.000819654,-0.000931063,-9.817287,0,0,29.07173,1,1,1000,1000
10053,25:19.1,IMU,70245224,0,0.000923713,0.001018304,0.001038018,-0.001213128,-0.000736129,-9.817307,0,0,29.0738,1,1,1000,1000
10105,25:19.1,IMU,70285208,0,0.00100324,0.000999056,0.001024991,-0.001542693,-0.001246197,-9.817924,0,0,29.07592,1,1,1000,1000
10158,25:19.1,IMU,70325192,0,0.001016324,0.000932939,0.000973576,-0.000545905,-0.001732625,-9.816999,0,0,29.07804,1,1,1000,1000
10258,25:19.2,IMU,70365176,0,0.001080489,0.00093883,0.000996309,0.000429595,-0.001155481,-9.816781,0,0,29.08017,1,1,1000,1000
10313,25:19.2,IMU,70405160,0,0.000984254,0.001022174,0.001016666,-0.000788722,-0.000655264,-9.81711,0,0,29.08229,1,1,1000,1000
10415,25:19.3,IMU,70445144,0,0.000968035,0.000951417,0.000979807,-0.000490045,-0.000636101,-9.817465,0,0,29.08441,1,1,1000,1000
10470,25:19.3,IMU,70485128,0,0.000945454,0.000986157,0.001032725,-0.001928091,-0.001205516,-9.817666,0,0,29.08653,1,1,1000,1000
10523,25:19.3,IMU,70525112,0,0.001012754,0.000988139,0.001007085,-0.001044994,-0.001749899,-9.817043,0,0,29.08866,1,1,1000,1000
10624,25:19.4,IMU,70565096,0,0.000996008,0.000900334,0.000886231,-0.001313987,-0.000821065,-9.817026,0,0,29.09078,1,1,1000,1000
10679,25:19.4,IMU,70605080,0,0.001016478,0.001042901,0.000957612,-0.000612291,-0.000735477,-9.816699,0,0,29.0929,1,1,1000,1000
10780,25:19.5,IMU,70645064,0,0.001001632,0.00097325,0.00101986,-0.000182303,-0.000866908,-9.816705,0,0,29.09507,1,1,1000,1000
10832,25:19.5,IMU,70685048,0,0.001048389,0.000985587,0.00100246,-0.000679103,-0.001423819,-9.816919,0,0,29.09719,1,1,1000,1000
10885,25:19.5,IMU,70725032,0,0.000929676,0.000952048,0.000953003,-0.000995137,-0.000662599,-9.816982,0,0,29.09931,1,1,1000,1000
10988,25:19.6,IMU,70765016,0,0.001032035,0.001001807,0.00105069,-0.000653972,-0.000622103,-9.816675,0,0,29.10143,1,1,1000,1000
11043,25:19.6,IMU,70805000,0,0.000970538,0.001027659,0.001004442,-0.001008306,-0.000157994,-9.817751,0,0,29.10355,1,1,1000,1000
11141,25:19.7,IMU,70844984,0,0.00093671,0.000986737,0.001008351,-0.000460222,-0.001930656,-9.818484,0,0,29.10562,1,1,1000,1000
11193,25:19.7,IMU,70884968,0,0.00100497,0.000997212,0.00103305,-0.00162563,-0.001423091,-9.817518,0,0,29.10774,1,1,1000,1000
11247,25:19.7,IMU,70924952,0,0.00091102,0.000909449,0.001011642,-0.000837932,-0.001560259,-9.817715,0,0,29.10986,1,1,1000,1000
11347,25:19.8,IMU,70964936,0,0.001075917,0.000922066,0.000946029,-0.000764152,0.000308482,-9.818536,0,0,29.11198,1,1,1000,1000
11402,25:19.8,IMU,71004920,0,0.000975977,0.000975134,0.001035475,-0.000711659,-0.001174003,-9.818024,0,0,29.11409,1,1,1000,1000
11503,25:19.9,IMU,71044904,0,0.001023635,0.000954749,0.000970633,-0.001253902,-0.001667269,-9.817162,0,0,29.11621,1,1,1000,1000
11554,25:19.9,IMU,71084888,0,0.001003647,0.0009779,0.001031231,0.000609035,-0.001253098,-9.818247,0,0,29.11833,1,1,1000,1000
11608,25:19.9,IMU,71124872,0,0.000930502,0.00106127,0.000969132,-0.001713258,-0.001023347,-9.817781,0,0,29.12045,1,1,1000,1000
11708,25:20.0,IMU,71164856,0,0.00098095,0.001040762,0.000936644,-0.000814116,-0.001663598,-9.816539,0,0,29.12256,1,1,1000,1000
11763,25:20.0,IMU,71204840,0,0.000990916,0.001006566,0.001005083,-0.000492524,-0.001487033,-9.817696,0,0,29.12468,1,1,1000,1000
11864,25:20.1,IMU,71244824,0,0.001006438,0.001009325,0.000959786,-0.000868373,-0.001153315,-9.81862,0,0,29.1268,1,1,1000,1000
11916,25:20.1,IMU,71284808,0,0.000935503,0.001041097,0.000960962,-0.001446667,-0.000262097,-9.816162,0,0,29.12891,1,1,1000,1000
11968,25:20.1,IMU,71324792,0,0.00098421,0.000996921,0.001049798,-0.00141241,-0.002319508,-9.817782,0,0,29.13103,1,1,1000,1000
12068,25:20.2,IMU,71364776,0,0.000967317,0.001005586,0.001018487,-0.001406876,-0.001182575,-9.818125,0,0,29.13315,1,1,1000,1000
12123,25:20.2,IMU,71404760,0,0.001023676,0.001026209,0.001008609,-0.001088007,-0.000126169,-9.817649,0,0,29.13526,1,1,1000,1000
12225,25:20.3,IMU,71444744,0,0.001041226,0.001065843,0.001056539,-0.000898972,-0.001341418,-9.816954,0,0,29.13738,1,1,1000,1000
12279,25:20.3,IMU,71484728,0,0.001003327,0.000984251,0.001023789,-0.000685856,-0.00114339,-9.818384,0,0,29.13949,1,1,1000,1000
12333,25:20.3,IMU,71524712,0,0.001008704,0.001046168,0.001040532,-0.001514249,-0.000849099,-9.817447,0,0,29.14161,1,1,1000,1000
12435,25:20.4,IMU,71564696,0,0.001068642,0.000992575,0.001008556,-0.001281043,-0.001712495,-9.816056,0,0,29.14372,1,1,1000,1000
12490,25:20.4,IMU,71604680,0,0.000945942,0.001046025,0.001059913,-0.000515856,-0.001554914,-9.817363,0,0,29.14583,1,1,1000,1000
12590,25:20.5,IMU,71644664,0,0.00093439,0.001052031,0.000941297,-0.001846964,-0.000568932,-9.818808,0,0,29.14795,1,1,1000,1000
12642,25:20.5,IMU,71684648,0,0.000986811,0.000962576,0.000990858,0.000770789,-0.001258152,-9.817484,0,0,29.15006,1,1,1000,1000
12695,25:20.5,IMU,71724632,0,0.000916573,0.001029584,0.001011516,-9.52e-05,-0.001957454,-9.817754,0,0,29.15218,1,1,1000,1000
12796,25:20.6,IMU,71764616,0,0.000972314,0.001027074,0.001021679,-0.001151543,-0.001854622,-9.817934,0,0,29.15429,1,1,1000,1000
12851,25:20.6,IMU,71804600,0,0.001025039,0.000920586,0.001033644,-0.000787374,-0.000467562,-9.816795,0,0,29.1564,1,1,1000,1000
12950,25:20.7,IMU,71844584,0,0.001017882,0.000953666,0.001017006,-0.001650125,-0.00030897,-9.816917,0,0,29.15851,1,1,1000,1000
13002,25:20.7,IMU,71885401,0,0.001009407,0.000984768,0.001025997,-0.000530941,-0.00234182,-9.817303,0,0,29.16068,1,1,1000,1000
13055,25:20.7,IMU,71925385,0,0.001058025,0.00106318,0.00102294,-0.000663167,0.000650594,-9.8169,0,0,29.16279,1,1,1000,1000
13156,25:20.8,IMU,71965369,0,0.000964436,0.000972176,0.00100431,-0.000495067,-0.000923421,-9.816919,0,0,29.1649,1,1,1000,1000
13211,25:20.8,IMU,72005353,0,0.00101695,0.000952297,0.001056604,-0.000743693,-0.000579382,-9.817694,0,0,29.16701,1,1,1000,1000
13311,25:20.9,IMU,72045337,0,0.001031408,0.001031988,0.001039329,0.000219929,-0.001176341,-9.817833,0,0,29.16912,1,1,1000,1000
13363,25:20.9,IMU,72085321,0,0.000960223,0.001077591,0.00104633,-0.000854315,-0.000949666,-9.817953,0,0,29.17123,1,1,1000,1000
13416,25:20.9,IMU,72125305,0,0.001014018,0.001003173,0.001024574,-0.0008493,-0.001327881,-9.817242,0,0,29.17334,1,1,1000,1000
13517,25:21.0,IMU,72165289,0,0.000935069,0.000959368,0.000946856,-0.000509785,-0.002166474,-9.817888,0,0,29.17545,1,1,1000,1000
13572,25:21.0,IMU,72205273,0,0.000971778,0.00095835,0.001065574,-0.000406038,-0.000444035,-9.817592,0,0,29.17756,1,1,1000,1000
13671,25:21.1,IMU,72245257,0,0.000986756,0.001016376,0.000970394,-0.000430623,-0.001786992,-9.81653,0,0,29.17967,1,1,1000,1000
13723,25:21.1,IMU,72285241,0,0.001052936,0.000995545,0.001041266,-0.001297516,-0.001349727,-9.817732,0,0,29.18178,1,1,1000,1000
13775,25:21.1,IMU,72325225,0,0.001003622,0.001090622,0.001068999,-0.001830514,-0.001894457,-9.817573,0,0,29.18384,1,1,1000,1000
13875,25:21.2,IMU,72365209,0,0.001019092,0.000952295,0.001081981,-0.000629854,-0.001821569,-9.818626,0,0,29.18595,1,1,1000,1000
13930,25:21.2,IMU,72405193,0,0.000983429,0.001014129,0.000970717,-0.001659311,-0.001544305,-9.817802,0,0,29.18806,1,1,1000,1000
14031,25:21.3,IMU,72445177,0,0.001023711,0.001055693,0.001021263,-0.000368243,-0.001646632,-9.817908,0,0,29.19016,1,1,1000,1000
14087,25:21.3,IMU,72485161,0,0.000998508,0.000971617,0.000989786,-0.001507737,-0.001552729,-9.817957,0,0,29.19227,1,1,1000,1000
14140,25:21.3,IMU,72525145,0,0.001041034,0.001036394,0.001016773,-0.000728327,-0.000340905,-9.816719,0,0,29.19438,1,1,1000,1000
14241,25:21.4,IMU,72565129,0,0.001018763,0.001010349,0.001023573,-0.000234377,-0.001591363,-9.817465,0,0,29.19649,1,1,1000,1000
14296,25:21.4,IMU,72605113,0,0.001004816,0.000953373,0.001014237,-0.000579778,-0.000491574,-9.817278,0,0,29.19859,1,1,1000,1000
14396,25:21.5,IMU,72645097,0,0.00105183,0.001071296,0.000988863,-0.000352363,-0.00169572,-9.817787,0,0,29.2007,1,1,1000,1000
14449,25:21.5,IMU,72685081,0,0.001057063,0.000972555,0.001085929,-0.000335695,-0.002000359,-9.818048,0,0,29.20281,1,1,1000,1000
14502,25:21.5,IMU,72725065,0,0.001027748,0.000978381,0.000997667,-0.001448042,-0.000305805,-9.817809,0,0,29.20497,1,1,1000,1000
14603,25:21.6,IMU,72765049,0,0.001032532,0.001025115,0.001082626,-0.000509348,-0.001985536,-9.817758,0,0,29.20707,1,1,1000,1000
14658,25:21.6,IMU,72805033,0,0.000961766,0.001056761,0.000968726,-0.000726087,-7.19e-05,-9.817019,0,0,29.20918,1,1,1000,1000
14757,25:21.7,IMU,72845017,0,0.00107216,0.001049349,0.001032503,-0.001036642,-0.001646829,-9.816879,0,0,29.21128,1,1,1000,1000
14809,25:21.7,IMU,72885001,0,0.001059286,0.001033358,0.001014078,-0.002055194,-0.001215984,-9.816868,0,0,29.21339,1,1,1000,1000
14862,25:21.7,IMU,72924985,0,0.000992688,0.001030901,0.00101192,-0.001549995,-0.002312504,-9.815443,0,0,29.21544,1,1,1000,1000
14962,25:21.8,IMU,72964969,0,0.001039171,0.001053678,0.001053982,-0.0008145,-0.000734072,-9.817658,0,0,29.21754,1,1,1000,1000
15017,25:21.8,IMU,73004953,0,0.001090964,0.001068706,0.000967501,-0.001058019,-0.001010107,-9.816863,0,0,29.21965,1,1,1000,1000
15118,25:21.9,IMU,73044937,0,0.001073417,0.001134254,0.00099413,-0.000863059,-0.001752174,-9.817211,0,0,29.22175,1,1,1000,1000
15172,25:21.9,IMU,73084921,0,0.0009857,0.001016014,0.001052308,-0.000548627,-0.000194736,-9.817569,0,0,29.22386,1,1,1000,1000
15225,25:21.9,IMU,73124905,0,0.001000076,0.001021845,0.00103009,-0.000574866,-0.001097688,-9.816726,0,0,29.22596,1,1,1000,1000
15326,25:22.0,IMU,73164889,0,0.001002114,0.001030547,0.001103734,-0.001112408,-0.001052746,-9.817324,0,0,29.22806,1,1,1000,1000
15381,25:22.0,IMU,73204873,0,0.001047221,0.001011958,0.000998571,-0.000908398,-0.000525529,-9.816986,0,0,29.23017,1,1,1000,1000
15479,25:22.1,IMU,73244857,0,0.001007731,0.001024687,0.000996807,-0.000712535,-0.000986692,-9.817484,0,0,29.23227,1,1,1000,1000
15531,25:22.1,IMU,73284841,0,0.001021342,0.001018544,0.00106226,0.01439419,-0.000915867,-9.817773,0,0,29.23437,1,1,1000,1000
15584,25:22.1,IMU,73324825,0,0.001029007,0.001013917,0.001065609,0.01532125,0.000629202,-9.817571,0,0,29.23647,1,1,1000,1000
15684,25:22.2,IMU,73364809,0,0.001032572,0.001001136,0.001018338,0.01144126,0.000793291,-9.818111,0,0,29.23857,1,1,1000,1000
15739,25:22.2,IMU,73404793,0,0.001004159,0.001000889,0.00104163,0.004813846,-0.000388969,-9.815989,0,0,29.24067,1,1,1000,1000
15840,25:22.3,IMU,73444777,0,0.00102372,0.001076676,0.001048622,0.001026507,-0.000605864,-9.817675,0,0,29.24278,1,1,1000,1000
15894,25:22.3,IMU,73484761,0,0.001007981,0.001006901,0.001011873,-0.00291808,-3.27e-05,-9.817017,0,0,29.24488,1,1,1000,1000
15948,25:22.3,IMU,73524745,0,0.001080345,0.001035131,0.00101949,-0.005384536,-0.001669264,-9.816769,0,0,29.24698,1,1,1000,1000
16049,25:22.4,IMU,73564729,0,0.00104648,0.001040392,0.001048802,-0.006743682,-0.001790203,-9.81752,0,0,29.24908,1,1,1000,1000
16104,25:22.4,IMU,73604713,0,0.001021054,0.001030709,0.001048384,-0.007688707,-0.002048382,-9.817419,0,0,29.25118,1,1,1000,1000
16204,25:22.5,IMU,73644697,0,0.001031322,0.001045465,0.001060499,-0.006451621,-0.002003678,-9.816362,0,0,29.25328,1,1,1000,1000
16257,25:22.5,IMU,73684681,0,0.000992911,0.000997584,0.00095118,-0.004623446,-0.00097285,-9.816451,0,0,29.25538,1,1,1000,1000
16310,25:22.5,IMU,73724665,0,0.001028415,0.001088509,0.001073761,-0.00501057,-0.00097151,-9.817849,0,0,29.25748,1,1,1000,1000
16411,25:22.6,IMU,73764649,0,0.000980067,0.001037987,0.000993129,-0.003532159,-0.001198647,-9.81749,0,0,29.25957,1,1,1000,1000
16466,25:22.6,IMU,73804633,0,0.001018946,0.001083806,0.001016408,-0.004153247,-0.000960869,-9.817266,0,0,29.26167,1,1,1000,1000
16565,25:22.7,IMU,73844617,0,0.0010317,0.00108428,0.001070627,-0.000884322,-0.000596882,-9.81776,0,0,29.26377,1,1,1000,1000
16617,25:22.7,IMU,73884601,0,0.001008271,0.000993999,0.001069585,-0.000586245,-0.000928735,-9.818736,0,0,29.26587,1,1,1000,1000
16670,25:22.7,IMU,73924585,0,0.001074907,0.001047779,0.001051894,0.000320728,-0.000728945,-9.816572,0,0,29.26797,1,1,1000,1000
16770,25:22.8,IMU,73965402,0,0.001048754,0.001065944,0.001059684,-0.001519182,-0.002666998,-9.820637,0,0,29.27012,1,1,1000,1000
16826,25:22.8,IMU,74005386,0,0.001031192,0.001031612,0.001040031,0.001150515,-0.000510756,-10.28249,0,0,29.27221,1,1,1000,1000
16932,25:22.9,IMU,74045370,0,0.000978588,0.001044399,0.001063119,-0.000509135,-0.000438659,-10.48103,0,0,29.27431,1,1,1000,1000
16983,25:22.9,IMU,74085354,0,0.001069592,0.001064944,0.001024009,-0.003723301,-0.001129792,-10.36453,0,0,29.27641,1,1,1000,1000
17036,25:22.9,IMU,74125338,0,0.001010817,0.001045418,0.001044156,-0.003622962,-0.000967273,-10.38453,0,0,29.27851,1,1,1000,1000
17137,25:23.0,IMU,74165322,0,0.001028686,0.001049816,0.001043201,-0.003566619,-0.001635115,-10.40146,0,0,29.2806,1,1,1000,1000
17192,25:23.0,IMU,74205306,0,0.001070638,0.001112115,0.000994864,-0.001769657,-0.000707237,-10.37692,0,0,29.2827,1,1,1000,1000
17290,25:23.1,IMU,74245290,0,0.00100963,0.001042616,0.001070565,-0.002550514,-0.002128394,-10.35309,0,0,29.28479,1,1,1000,1000
17342,25:23.1,IMU,74285274,0,0.001032542,0.001049744,0.001059245,-0.001430796,-0.001956007,-10.34369,0,0,29.28689,1,1,1000,1000
17395,25:23.1,IMU,74325258,0,0.000993521,0.001024771,0.001070092,-0.000107448,-0.001147666,-10.34133,0,0,29.28898,1,1,1000,1000
17495,25:23.2,IMU,74365242,0,0.001005345,0.001050199,0.001075704,0.000418616,-0.001270812,-10.34873,0,0,29.29108,1,1,1000,1000
17550,25:23.2,IMU,74405226,0,0.001047414,0.001046974,0.001035073,0.00115704,-0.00101442,-10.36413,0,0,29.29312,1,1,1000,1000
17650,25:23.3,IMU,74445210,0,0.001034596,0.001041182,0.001075878,0.000185493,-0.00049836,-10.37972,0,0,29.29521,1,1,1000,1000
17704,25:23.3,IMU,74485194,0,0.001041189,0.001083626,0.001072185,0.00137442,-0.000474863,-10.39478,0,0,29.29731,1,1,1000,1000
17758,25:23.3,IMU,74525178,0,0.001034126,0.001087226,0.001025491,0.000486571,-7.22e-05,-10.41116,0,0,29.2994,1,1,1000,1000
17860,25:23.4,IMU,74565162,0,0.001046206,0.001003418,0.001096028,0.001149251,0.000152575,-10.42337,0,0,29.30149,1,1,1000,1000
17915,25:23.4,IMU,74605146,0,0.00106729,0.00105531,0.000973781,0.000794507,-0.001661684,-10.44135,0,0,29.30359,1,1,1000,1000
18014,25:23.5,IMU,74645130,0,-0.02131866,-0.01915207,0.001120087,0.01715839,0.000789621,-11.82154,0,0,29.30568,1,1,1000,1000
18069,25:23.5,IMU,74685114,0,-0.03078703,-0.0266294,0.001342518,0.06579611,0.00889316,-14.86631,0,0,29.30777,1,1,1000,1000
18121,25:23.5,IMU,74725098,0,-0.03423738,-0.02412069,0.001599359,0.09409179,0.02131018,-14.99086,0,0,29.30986,1,1,1000,1000
18222,25:23.6,IMU,74765082,0,-0.03239724,-0.01379238,0.00178507,0.1150275,0.03236982,-14.06022,0,0,29.31196,1,1,1000,1000
18280,25:23.6,IMU,74805066,0,-0.02822565,-0.002431888,0.001951259,0.1315179,0.04282378,-12.86259,0,0,29.3141,1,1,1000,1000
18379,25:23.7,IMU,74845050,0,-0.02053295,0.01058381,0.002039455,0.1463095,0.04407649,-11.66395,0,0,29.31619,1,1,1000,1000
18431,25:23.7,IMU,74885034,0,-0.01395394,0.0222191,0.002153657,0.1578397,0.03953286,-10.64746,0,0,29.31828,1,1,1000,1000
18484,25:23.7,IMU,74925018,0,-0.008386547,0.03126147,0.002255797,0.1661586,0.03534617,-9.887739,0,0,29.32037,1,1,1000,1000
18584,25:23.8,IMU,74965002,0,-0.003533212,0.03590904,0.00224058,0.1710563,0.02919419,-9.41502,0,0,29.32246,1,1,1000,1000
18638,25:23.8,IMU,75004986,0,0.000594144,0.04094803,0.00221251,0.1719367,0.02387839,-9.201349,0,0,29.3245,1,1,1000,1000
18741,25:23.9,IMU,75044970,0,0.004401001,0.04269301,0.002170913,0.1718748,0.02042146,-9.201242,0,0,29.32659,1,1,1000,1000
18793,25:23.9,IMU,75084954,0,0.008548459,0.04512553,0.002107779,0.17134,0.01909746,-9.349462,0,0,29.32868,1,1,1000,1000
18846,25:23.9,IMU,75124938,0,0.01085784,0.04622248,0.002091155,0.1687302,0.01786949,-9.589269,0,0,29.33077,1,1,1000,1000
18947,25:24.0,IMU,75164922,0,0.01340356,0.04489297,0.002114749,0.1688171,0.0193429,-9.862723,0,0,29.33286,1,1,1000,1000
19002,25:24.0,IMU,75204906,0,0.01330149,0.04250411,0.002055464,0.1737138,0.02164756,-10.12589,0,0,29.33495,1,1,1000,1000
19101,25:24.1,IMU,75244890,0,0.0138366,0.04119016,0.00197429,0.1774943,0.02456237,-10.35993,0,0,29.33704,1,1,1000,1000
19153,25:24.1,IMU,75284874,0,0.01670578,0.04058466,0.001945128,0.1837718,0.02707329,-10.55117,0,0,29.33912,1,1,1000,1000
19205,25:24.1,IMU,75324858,0,0.01426164,0.04011982,0.001948408,0.1898137,0.02861855,-10.66438,0,0,29.34121,1,1,1000,1000
19305,25:24.2,IMU,75364842,0,0.01274564,0.03694456,0.001803518,0.1981749,0.03011348,-10.76946,0,0,29.3433,1,1,1000,1000
19360,25:24.2,IMU,75404826,0,0.01081487,0.03259642,0.001778912,0.2051886,0.03237581,-10.81522,0,0,29.34539,1,1,1000,1000
19461,25:24.3,IMU,75444810,0,0.009862108,0.03366156,0.001685895,0.2122561,0.03271967,-10.82527,0,0,29.34748,1,1,1000,1000
19515,25:24.3,IMU,75484794,0,0.00905491,0.03144857,0.001772101,0.2175698,0.03334145,-10.83369,0,0,29.34956,1,1,1000,1000
19568,25:24.3,IMU,75524778,0,0.008235942,0.03132836,0.001681918,0.2239016,0.03543194,-10.82563,0,0,29.35165,1,1,1000,1000
19671,25:24.4,IMU,75564762,0,0.00771904,0.02895135,0.001594042,0.2292961,0.03366062,-10.80084,0,0,29.35373,1,1,1000,1000
19726,25:24.4,IMU,75604746,0,0.009573337,0.03048989,0.00159164,0.2340527,0.03504223,-10.79448,0,0,29.35582,1,1,1000,1000
19825,25:24.5,IMU,75644730,0,0.006808228,0.0278195,0.001637475,0.2390741,0.0363792,-10.79309,0,0,29.35791,1,1,1000,1000
19878,25:24.5,IMU,75684714,0,0.00744833,0.02888005,0.001732404,0.2449436,0.03645375,-10.79422,0,0,29.35999,1,1,1000,1000
19931,25:24.5,IMU,75724698,0,0.009570636,0.02891606,0.001789745,0.2494117,0.03597669,-10.79966,0,0,29.36208,1,1,1000,1000
20032,25:24.6,IMU,75764682,0,0.006076472,0.02332282,0.001612383,0.2548,0.03758631,-10.80939,0,0,29.36416,1,1,1000,1000
20087,25:24.6,IMU,75804666,0,0.004620672,0.02427626,0.001528855,0.2625457,0.0378885,-10.81683,0,0,29.36625,1,1,1000,1000
20186,25:24.7,IMU,75844650,0,0.003287539,0.02440688,0.001543139,0.266547,0.0371623,-10.83034,0,0,29.36833,1,1,1000,1000
20238,25:24.7,IMU,75884634,0,0.006063783,0.02391793,0.001589216,0.2735539,0.03800246,-10.84453,0,0,29.37041,1,1,1000,1000
20290,25:24.7,IMU,75924618,0,0.002014485,0.02306413,0.001673458,0.2809617,0.03877394,-10.85424,0,0,29.3725,1,1,1000,1000
20391,25:24.8,IMU,75964602,0,0.001462165,0.02147007,0.001573207,0.2863396,0.04038563,-10.84685,0,0,29.37458,1,1,1000,1000
20446,25:24.8,IMU,76004586,0,0.000457382,0.01634413,0.001525928,0.2948088,0.0401502,-10.86842,0,0,29.37667,1,1,1000,1000
20548,25:24.9,IMU,76045403,0,0.0016541,0.0175329,0.001436394,0.2992475,0.04078351,-10.86327,0,0,29.3788,1,1,1000,1000
20600,25:24.9,IMU,76085387,0,0.003426027,0.01504657,0.001641828,0.3076424,0.03994606,-10.86867,0,0,29.38088,1,1,1000,1000
20653,25:24.9,IMU,76125371,0,0.002400702,0.01698387,0.001516745,0.314347,0.04096055,-10.86122,0,0,29.38297,1,1,1000,1000
20752,25:25.0,IMU,76165355,0,7.374706e-05,0.01564286,0.00170212,0.3218989,0.04182788,-10.86254,0,0,29.38505,1,1,1000,1000
20808,25:25.0,IMU,76205339,0,-0.00097442,0.01556318,0.001660374,0.3281435,0.04103696,-10.85383,0,0,29.38713,1,1,1000,1000
20909,25:25.1,IMU,76245323,0,0.0005697,0.01783492,0.001532096,0.3354712,0.04128428,-10.86204,0,0,29.38921,1,1,1000,1000
20962,25:25.1,IMU,76285307,0,0.000203163,0.01670128,0.001563911,0.3417667,0.0414191,-10.84617,0,0,29.39129,1,1,1000,1000
21015,25:25.1,IMU,76325291,0,-0.002204784,0.0161752,0.001536751,0.3493355,0.04151263,-10.85373,0,0,29.39337,1,1,1000,1000
21115,25:25.2,IMU,76365275,0,-0.002384787,0.01540919,0.001533888,0.3554817,0.04163335,-10.81909,0,0,29.39545,1,1,1000,1000
21173,25:25.2,IMU,76405259,0,-0.003309381,0.01395301,0.001480562,0.3616782,0.04177873,-10.72239,0,0,29.39754,1,1,1000,1000
21275,25:25.3,IMU,76445243,0,-0.00920167,0.01565709,0.001648015,0.3667459,0.04271311,-10.61152,0,0,29.39962,1,1,1000,1000
21329,25:25.3,IMU,76485227,0,-0.008777263,0.01634521,0.001632885,0.3717198,0.04202534,-10.51108,0,0,29.40164,1,1,1000,1000
21381,25:25.3,IMU,76525211,0,-0.00696692,0.01691562,0.001568627,0.3778718,0.04226675,-10.41655,0,0,29.40372,1,1,1000,1000
21484,25:25.4,IMU,76565195,0,-0.00641781,0.01618279,0.001611461,0.3842301,0.04254849,-10.3324,0,0,29.4058,1,1,1000,1000
21539,25:25.4,IMU,76605179,0,-0.00658734,0.01482398,0.001459729,0.3887095,0.04192107,-10.25406,0,0,29.40788,1,1,1000,1000
21639,25:25.5,IMU,76645163,0,-0.005421377,0.01556664,0.001523014,0.3947854,0.04163091,-10.17902,0,0,29.40996,1,1,1000,1000
21691,25:25.5,IMU,76685147,0,-0.004056355,0.01684351,0.001452505,0.4003095,0.04233178,-10.11407,0,0,29.41204,1,1,1000,1000
21745,25:25.5,IMU,76725131,0,-0.004202273,0.0175996,0.001463055,0.4072076,0.04259721,-10.05387,0,0,29.41412,1,1,1000,1000
21846,25:25.6,IMU,76765115,0,-0.000222771,0.01671692,0.001640984,0.4122934,0.04480788,-9.999622,0,0,29.41619,1,1,1000,1000
21901,25:25.6,IMU,76805099,0,-0.001728073,0.01539757,0.00168517,0.418326,0.04404627,-9.939632,0,0,29.41827,1,1,1000,1000
22000,25:25.7,IMU,76845083,0,-0.001853144,0.01557257,0.001826305,0.4223594,0.04421186,-9.850923,0,0,29.42035,1,1,1000,1000
22052,25:25.7,IMU,76885067,0,-0.00011459,0.01678931,0.002101798,0.4277195,0.04323799,-9.756769,0,0,29.42243,1,1,1000,1000
22104,25:25.7,IMU,76925051,0,0.001137346,0.01794186,0.002259798,0.4325566,0.04468837,-9.676432,0,0,29.42455,1,1,1000,1000
22204,25:25.8,IMU,76965035,0,0.001521775,0.01791028,0.002515509,0.4368173,0.04509823,-9.598466,0,0,29.42663,1,1,1000,1000
22259,25:25.8,IMU,77005019,0,0.00062748,0.01743068,0.002667063,0.4423025,0.04545387,-9.531007,0,0,29.42871,1,1,1000,1000
22360,25:25.9,IMU,77045003,0,0.000743187,0.0168378,0.002731249,0.4465222,0.04501802,-9.470943,0,0,29.43079,1,1,1000,1000
22413,25:25.9,IMU,77084987,0,0.002426699,0.01926499,0.002849084,0.4525653,0.04547992,-9.418368,0,0,29.43281,1,1,1000,1000
22465,25:25.9,IMU,77124971,0,0.003356749,0.01959457,0.002967654,0.4567027,0.04558347,-9.368206,0,0,29.43488,1,1,1000,1000
22565,25:26.0,IMU,77164955,0,0.004567652,0.01877751,0.003067223,0.4623458,0.04701123,-9.327191,0,0,29.43696,1,1,1000,1000
22621,25:26.0,IMU,77204939,0,0.001265469,0.01786719,0.003063677,0.4664727,0.04628182,-9.290318,0,0,29.43903,1,1,1000,1000
22720,25:26.1,IMU,77244923,0,0.002495331,0.01978013,0.003241249,0.4711658,0.04567375,-9.257135,0,0,29.44111,1,1,1000,1000
22773,25:26.1,IMU,77284907,0,0.005180473,0.01996266,0.003158568,0.4777519,0.04647563,-9.230524,0,0,29.44318,1,1,1000,1000
22826,25:26.1,IMU,77324891,0,0.003667837,0.02081544,0.003186356,0.481235,0.04767132,-9.208613,0,0,29.44526,1,1,1000,1000
22926,25:26.2,IMU,77364875,0,0.003420024,0.01880324,0.003252707,0.487203,0.0472816,-9.192488,0,0,29.44733,1,1,1000,1000
22981,25:26.2,IMU,77404859,0,0.003637444,0.01875477,0.003203267,0.4905505,0.04807288,-9.179223,0,0,29.44941,1,1,1000,1000
23082,25:26.3,IMU,77444843,0,0.002142499,0.01803296,0.00317292,0.4977482,0.04790426,-9.169769,0,0,29.45148,1,1,1000,1000
23136,25:26.3,IMU,77484827,0,0.003791489,0.01996471,0.00329214,0.5018511,0.04857529,-9.150837,0,0,29.45355,1,1,1000,1000
23189,25:26.3,IMU,77524811,0,0.003757999,0.01799789,0.003108197,0.5063364,0.04958023,-9.159214,0,0,29.45562,1,1,1000,1000
23290,25:26.4,IMU,77564795,0,0.000286925,0.01816699,0.003075724,0.5119706,0.04829596,-9.138364,0,0,29.4577,1,1,1000,1000
23346,25:26.4,IMU,77604779,0,0.000854127,0.0164084,0.002929519,0.5163596,0.04903159,-9.149473,0,0,29.45977,1,1,1000,1000
23446,25:26.5,IMU,77644763,0,0.000390357,0.01642653,0.002776569,0.5211346,0.04965803,-9.145819,0,0,29.46184,1,1,1000,1000
23498,25:26.5,IMU,77684747,0,-3.44e-05,0.01702091,0.002645299,0.5260893,0.04931081,-9.139267,0,0,29.46391,1,1,1000,1000
23552,25:26.5,IMU,77724731,0,0.000143571,0.01538177,0.002458394,0.5309019,0.04928749,-9.151079,0,0,29.46598,1,1,1000,1000
23653,25:26.6,IMU,77764715,0,0.00021189,0.0139138,0.002398693,0.5372,0.04947155,-9.161212,0,0,29.46806,1,1,1000,1000
23708,25:26.6,IMU,77804699,0,-0.001023256,0.0150596,0.00226335,0.5417647,0.05005956,-9.160957,0,0,29.47013,1,1,1000,1000
23807,25:26.7,IMU,77844683,0,-0.000518735,0.01667152,0.002038781,0.5462822,0.05010145,-9.159731,0,0,29.47219,1,1,1000,1000
23858,25:26.7,IMU,77884667,0,0.000706115,0.01730575,0.001778411,0.5516602,0.04864017,-9.16776,0,0,29.47427,1,1,1000,1000
23911,25:26.7,IMU,77924651,0,0.000628679,0.01593896,0.001442331,0.5557272,0.04977542,-9.178226,0,0,29.47634,1,1,1000,1000
24011,25:26.8,IMU,77964635,0,0.000725497,0.01428798,0.001271093,0.5607038,0.05077068,-9.182803,0,0,29.4784,1,1,1000,1000
24066,25:26.8,IMU,78004619,0,0.000763085,0.01290422,0.001254166,0.565119,0.05020297,-9.191816,0,0,29.48048,1,1,1000,1000
24167,25:26.9,IMU,78044603,0,0.000734198,0.01177463,0.001145341,0.5708417,0.05014116,-9.201719,0,0,29.48254,1,1,1000,1000
24219,25:26.9,IMU,78084587,0,0.000453933,0.0113678,0.001188016,0.5751714,0.05102293,-9.206516,0,0,29.48461,1,1,1000,1000
24272,25:26.9,IMU,78125404,0,-0.002783361,0.01336902,0.001156688,0.5804572,0.05045599,-9.222067,0,0,29.48673,1,1,1000,1000
24371,25:27.0,IMU,78165388,0,-0.002922562,0.01508262,0.001049345,0.5839812,0.04972702,-9.214796,0,0,29.4888,1,1,1000,1000
24426,25:27.0,IMU,78205372,0,-0.003404253,0.0147087,0.000916694,0.588532,0.04963223,-9.2232,0,0,29.49087,1,1,1000,1000
24524,25:27.1,IMU,78245356,0,-0.003371892,0.01446955,0.000778637,0.5926446,0.05139436,-9.229546,0,0,29.49294,1,1,1000,1000
24576,25:27.1,IMU,78285340,0,-0.003639593,0.01573968,0.000704544,0.5970864,0.04970194,-9.236256,0,0,29.495,1,1,1000,1000
24628,25:27.1,IMU,78325324,0,-0.002827581,0.01592101,0.000466775,0.6008133,0.05075051,-9.239498,0,0,29.49707,1,1,1000,1000
24727,25:27.2,IMU,78365308,0,-0.002493693,0.0145577,0.000227691,0.6062675,0.05092502,-9.249187,0,0,29.49914,1,1,1000,1000
24781,25:27.2,IMU,78405292,0,-0.002128161,0.01329553,0.000196373,0.6101024,0.05205762,-9.251604,0,0,29.50121,1,1,1000,1000
24881,25:27.3,IMU,78445276,0,-0.001789426,0.01226914,0.000253315,0.6139323,0.05105601,-9.258913,0,0,29.50327,1,1,1000,1000
24934,25:27.3,IMU,78485260,0,-0.001476933,0.01120638,0.000287029,0.6183712,0.05190236,-9.268123,0,0,29.50534,1,1,1000,1000
24986,25:27.3,IMU,78525244,0,-0.00281977,0.01023478,0.00030906,0.6234124,0.05112346,-9.275162,0,0,29.5074,1,1,1000,1000
25087,25:27.4,IMU,78565228,0,-0.006031689,0.009454634,0.00026844,0.6269546,0.05163046,-9.280578,0,0,29.50942,1,1,1000,1000
25142,25:27.4,IMU,78605212,0,-0.008137934,0.008338055,0.000121546,0.6306742,0.05174531,-9.27071,0,0,29.51148,1,1,1000,1000
25241,25:27.5,IMU,78645196,0,-0.008621005,0.0084696,0.000229684,0.6356463,0.05215089,-9.27966,0,0,29.51355,1,1,1000,1000
25292,25:27.5,IMU,78685180,0,-0.006292481,0.01023112,0.000242762,0.6385607,0.05220318,-9.281636,0,0,29.51561,1,1,1000,1000
25345,25:27.5,IMU,78725164,0,-0.006301514,0.011581,0.000184021,0.6437605,0.05280694,-9.281508,0,0,29.51768,1,1,1000,1000
25445,25:27.6,IMU,78765148,0,-0.005659072,0.01052076,0.000287113,0.646552,0.05384285,-9.289764,0,0,29.51974,1,1,1000,1000
25501,25:27.6,IMU,78805132,0,-0.004895067,0.009629283,0.000330828,0.6507866,0.05284705,-9.296505,0,0,29.5218,1,1,1000,1000
25599,25:27.7,IMU,78845116,0,-0.002965251,0.009838585,0.000230237,0.653549,0.05314974,-9.281076,0,0,29.52387,1,1,1000,1000
25650,25:27.7,IMU,78885100,0,-0.005780042,0.008353041,0.000126096,0.6571772,0.05359155,-9.286206,0,0,29.52593,1,1,1000,1000
25702,25:27.7,IMU,78925084,0,-0.005087707,0.007370549,3.634415e-05,0.6617934,0.05360684,-9.286679,0,0,29.52799,1,1,1000,1000
25801,25:27.8,IMU,78965068,0,-0.004482568,0.006713746,0.000165784,0.6657832,0.05485031,-9.295135,0,0,29.53006,1,1,1000,1000
25855,25:27.8,IMU,79005052,0,-0.003937228,0.006166663,0.000222463,0.6691065,0.05514812,-9.297333,0,0,29.53217,1,1,1000,1000
25955,25:27.9,IMU,79045036,0,-0.001617833,0.006316356,7.921926e-05,0.6719694,0.05537589,-9.2781,0,0,29.53423,1,1,1000,1000
26006,25:27.9,IMU,79085020,0,-0.001381229,0.008940643,8.184317e-05,0.6745065,0.05569388,-9.283558,0,0,29.5363,1,1,1000,1000
26059,25:27.9,IMU,79125004,0,-0.001126495,0.008166726,0.000225036,0.6779927,0.05602571,-9.291275,0,0,29.53836,1,1,1000,1000
26158,25:28.0,IMU,79164988,0,-0.001210622,0.007499079,0.000238008,0.6819759,0.05526491,-9.295399,0,0,29.54037,1,1,1000,1000
26212,25:28.0,IMU,79204972,0,-0.002548127,0.005138137,-2.74e-05,0.6862873,0.0567531,-9.277088,0,0,29.54243,1,1,1000,1000
26311,25:28.1,IMU,79244956,0,-0.002141577,0.003884488,-5.37e-05,0.6879905,0.05701398,-9.284563,0,0,29.54449,1,1,1000,1000
26362,25:28.1,IMU,79284940,0,-0.001888726,0.007131182,-4.17e-05,0.69128,0.05790586,-9.285453,0,0,29.54655,1,1,1000,1000
26414,25:28.1,IMU,79324924,0,-0.001600855,0.006466588,5.244894e-05,0.6935707,0.05843795,-9.294113,0,0,29.54861,1,1,1000,1000
26513,25:28.2,IMU,79364908,0,0.00047406,0.006800641,-0.000102424,0.6974339,0.05829359,-9.273038,0,0,29.55067,1,1,1000,1000
26567,25:28.2,IMU,79404892,0,0.000494943,0.002729745,-0.000139223,0.6994327,0.05944485,-9.276717,0,0,29.55273,1,1,1000,1000
26667,25:28.3,IMU,79444876,0,0.000537319,0.002769612,-3.58e-05,0.703174,0.05980207,-9.283742,0,0,29.55479,1,1,1000,1000
26720,25:28.3,IMU,79484860,0,-0.000115367,0.00612239,1.172385e-05,0.7074493,0.05979902,-9.275255,0,0,29.55685,1,1,1000,1000
26772,25:28.3,IMU,79524844,0,-0.00019776,0.007403418,-6.36e-05,0.7082114,0.0610735,-9.267588,0,0,29.55891,1,1,1000,1000
26873,25:28.4,IMU,79564828,0,-7.63e-05,0.004407479,-4.25e-07,0.7110343,0.06188027,-9.273383,0,0,29.56097,1,1,1000,1000
26927,25:28.4,IMU,79604812,0,-2.62e-05,0.004228488,4.566448e-05,0.7142569,0.06163175,-9.27951,0,0,29.56303,1,1,1000,1000
27027,25:28.5,IMU,79644796,0,0.000748096,0.00605813,-2.53e-05,0.7154267,0.06334219,-9.264252,0,0,29.56508,1,1,1000,1000
27078,25:28.5,IMU,79684780,0,-0.000660245,0.007252948,-0.000138841,0.7183102,0.06182284,-9.262346,0,0,29.56714,1,1,1000,1000
27131,25:28.5,IMU,79724764,0,-0.000426635,0.006659119,-1.33e-05,0.7206383,0.0627538,-9.268793,0,0,29.5692,1,1,1000,1000
27231,25:28.6,IMU,79764748,0,-0.000801814,0.006306405,6.301092e-05,0.7238963,0.06273478,-9.267241,0,0,29.57126,1,1,1000,1000
27286,25:28.6,IMU,79804732,0,-0.001060862,0.004804235,-0.000129123,0.7264926,0.06444892,-9.253331,0,0,29.57331,1,1,1000,1000
27384,25:28.7,IMU,79844716,0,-0.000856269,0.008052785,-0.000147573,0.7275695,0.06376509,-9.256466,0,0,29.57537,1,1,1000,1000
27435,25:28.7,IMU,79884700,0,-0.00062439,0.007358722,-3.63e-05,0.7303836,0.06459604,-9.263937,0,0,29.57743,1,1,1000,1000
27488,25:28.7,IMU,79924684,0,-4.66e-06,0.008459628,-0.000140061,0.732867,0.06419162,-9.247099,0,0,29.57948,1,1,1000,1000
27587,25:28.8,IMU,79964668,0,0.00037452,0.005281351,-8.73e-05,0.7341561,0.06573579,-9.245638,0,0,29.58154,1,1,1000,1000
27641,25:28.8,IMU,80004652,0,0.000430921,0.005000249,-4.24e-05,0.7368014,0.06513493,-9.252909,0,0,29.58359,1,1,1000,1000
27741,25:28.9,IMU,80044636,0,0.003338464,0.006854189,9.290119e-05,0.7382406,0.06696298,-9.246467,0,0,29.58565,1,1,1000,1000
27792,25:28.9,IMU,80084620,0,0.00383634,0.005993747,5.010226e-05,0.7408379,0.06701283,-9.239759,0,0,29.58771,1,1,1000,1000
27844,25:28.9,IMU,80124604,0,0.003729335,0.007516829,4.011498e-05,0.7419283,0.0676616,-9.241932,0,0,29.58976,1,1,1000,1000
27944,25:29.0,IMU,80164588,0,0.003627647,0.006763958,0.000161988,0.7448127,0.06809735,-9.243371,0,0,29.59181,1,1,1000,1000
27998,25:29.0,IMU,80205405,0,0.003326022,0.006548823,4.471568e-06,0.745979,0.06782443,-9.226285,0,0,29.59392,1,1,1000,1000
28097,25:29.1,IMU,80245389,0,0.003069705,0.0032359,2.505912e-05,0.7488557,0.06995078,-9.231356,0,0,29.59597,1,1,1000,1000
28148,25:29.1,IMU,80285373,0,0.002301836,0.003296676,0.000120361,0.7502235,0.06824626,-9.232528,0,0,29.59803,1,1,1000,1000
28200,25:29.1,IMU,80325357,0,0.002881073,0.003636861,6.011367e-05,0.7510126,0.06965302,-9.216139,0,0,29.60008,1,1,1000,1000
28299,25:29.2,IMU,80365341,0,0.002774097,0.005369512,1.314809e-05,0.7525979,0.0692513,-9.219016,0,0,29.60213,1,1,1000,1000
28353,25:29.2,IMU,80405325,0,0.001504815,0.004953574,0.000125502,0.7558756,0.07072487,-9.221145,0,0,29.60419,1,1,1000,1000
28453,25:29.3,IMU,80445309,0,0.002696258,0.004653114,-8.93e-07,0.7571669,0.07052569,-9.200574,0,0,29.60624,1,1,1000,1000
28506,25:29.3,IMU,80485293,0,0.002454552,0.004368939,0.000139703,0.7576829,0.07050509,-9.207297,0,0,29.60829,1,1,1000,1000
28558,25:29.3,IMU,80525277,0,0.000261294,0.004206062,8.726175e-05,0.7587171,0.07161335,-9.204987,0,0,29.61034,1,1,1000,1000
28659,25:29.4,IMU,80565261,0,0.001573704,0.003813446,7.292176e-05,0.7598447,0.07119036,-9.189082,0,0,29.6124,1,1,1000,1000
28713,25:29.4,IMU,80605245,0,0.00146252,0.003533128,0.000139012,0.7621827,0.07235221,-9.197453,0,0,29.61445,1,1,1000,1000
28812,25:29.5,IMU,80645229,0,0.000755882,0.005701524,0.000112048,0.7625116,0.07082558,-9.177708,0,0,29.61645,1,1,1000,1000
28864,25:29.5,IMU,80685213,0,0.001540497,0.003862679,9.171337e-05,0.7637014,0.07165305,-9.177617,0,0,29.6185,1,1,1000,1000
28916,25:29.5,IMU,80725197,0,-0.000875723,0.006428798,0.000105829,0.7643001,0.07281878,-9.168251,0,0,29.62055,1,1,1000,1000
29016,25:29.6,IMU,80765181,0,0.001623642,0.004142888,0.000197142,0.7665394,0.07186042,-9.160248,0,0,29.6226,1,1,1000,1000
29071,25:29.6,IMU,80805165,0,-0.000503202,0.006293769,0.000121509,0.7664268,0.07261349,-9.144541,0,0,29.62465,1,1,1000,1000
29169,25:29.7,IMU,80845149,0,0.000586282,0.005359351,0.000264549,0.7678241,0.07340982,-9.140037,0,0,29.6267,1,1,1000,1000
29220,25:29.7,IMU,80885133,0,-0.001947635,0.007871063,0.000122235,0.7686327,0.07360605,-9.115286,0,0,29.62875,1,1,1000,1000
29272,25:29.7,IMU,80925117,0,0.003014862,0.006363505,0.000100098,0.7696092,0.07313461,-9.093565,0,0,29.6308,1,1,1000,1000
29371,25:29.8,IMU,80965101,0,0.001376928,0.006532129,1.885652e-05,0.7691566,0.07343075,-9.076344,0,0,29.63285,1,1,1000,1000
29425,25:29.8,IMU,81005085,0,0.002564093,0.006339603,9.417134e-05,0.7710413,0.07321231,-9.07421,0,0,29.6349,1,1,1000,1000
29525,25:29.9,IMU,81045069,0,-0.000141913,0.005956529,0.000102479,0.7714872,0.07458778,-9.077181,0,0,29.63694,1,1,1000,1000
29576,25:29.9,IMU,81085053,0,-0.000260471,0.005828091,-0.000168157,0.7734174,0.07409591,-9.077289,0,0,29.63905,1,1,1000,1000
29628,25:29.9,IMU,81125037,0,0.00058907,0.003298537,-9.6e-05,0.7740345,0.07479652,-9.096684,0,0,29.64109,1,1,1000,1000
29727,25:30.0,IMU,81165021,0,0.000644034,0.002797422,-2.72e-05,0.7767362,0.07539321,-9.120627,0,0,29.64314,1,1,1000,1000
29782,25:30.0,IMU,81205005,0,0.001729785,0.002139706,3.212386e-05,0.77777,0.07394094,-9.146477,0,0,29.64519,1,1,1000,1000
29881,25:30.1,IMU,81244989,0,0.002638957,0.00399214,0.000196349,0.7819449,0.07567248,-9.187484,0,0,29.64718,1,1,1000,1000
29932,25:30.1,IMU,81284973,0,0.000589204,0.001809075,0.000179401,0.7821158,0.0755702,-9.22473,0,0,29.64923,1,1,1000,1000
29984,25:30.1,IMU,81324957,0,0.002960136,0.003106541,0.000303942,0.7840527,0.07560898,-9.270014,0,0,29.65128,1,1,1000,1000
30085,25:30.2,IMU,81364941,0,0.000642847,0.001755857,0.000306823,0.7869933,0.07585211,-9.316582,0,0,29.65332,1,1,1000,1000
30139,25:30.2,IMU,81404925,0,-0.001150741,-0.000797655,0.000245468,0.7884906,0.07805233,-9.365025,0,0,29.65537,1,1,1000,1000
30239,25:30.3,IMU,81444909,0,0.004262057,0.000889801,0.00048489,0.7911094,0.07767224,-9.40915,0,0,29.65742,1,1,1000,1000
30292,25:30.3,IMU,81484893,0,0.000874031,-0.00010921,0.000613268,0.7927644,0.07865405,-9.451892,0,0,29.65946,1,1,1000,1000
30344,25:30.3,IMU,81524877,0,0.001338577,-0.001367102,0.000685807,0.7940615,0.07819743,-9.49702,0,0,29.66151,1,1,1000,1000
30445,25:30.4,IMU,81564861,0,0.000849524,-0.000634296,0.000606468,0.7946892,0.07855566,-9.546908,0,0,29.66355,1,1,1000,1000
30500,25:30.4,IMU,81604845,0,0.005143845,-0.00416643,0.000713903,0.7974256,0.07938311,-9.587536,0,0,29.6656,1,1,1000,1000
30599,25:30.5,IMU,81644829,0,0.001006245,-0.002407056,0.000674759,0.7994888,0.07826168,-9.62858,0,0,29.66764,1,1,1000,1000
30651,25:30.5,IMU,81684813,0,0.003647847,-0.004226143,0.000676683,0.8002958,0.07912263,-9.658123,0,0,29.66969,1,1,1000,1000
30703,25:30.5,IMU,81724797,0,0.001544261,-0.003988997,0.000664703,0.8007571,0.08035068,-9.699639,0,0,29.67173,1,1,1000,1000
30803,25:30.6,IMU,81764781,0,0.002724097,-0.006193977,0.000634556,0.8030365,0.07947804,-9.724596,0,0,29.67377,1,1,1000,1000
30858,25:30.6,IMU,81804765,0,0.001594518,-0.002862648,0.000611344,0.8038279,0.07919762,-9.7592,0,0,29.67582,1,1,1000,1000
30956,25:30.7,IMU,81844749,0,0.002560352,-0.003925192,0.000511095,0.8043396,0.08087628,-9.789589,0,0,29.67786,1,1,1000,1000
31007,25:30.7,IMU,81884733,0,0.003471946,-0.005877126,0.000569881,0.8050739,0.08010146,-9.810003,0,0,29.6799,1,1,1000,1000
31059,25:30.7,IMU,81924717,0,0.004147224,-0.004334318,0.000667891,0.8069816,0.07888129,-9.823748,0,0,29.68194,1,1,1000,1000
31158,25:30.8,IMU,81964701,0,0.001012038,-0.004887416,0.000552044,0.8074042,0.0815616,-9.852169,0,0,29.68399,1,1,1000,1000
31212,25:30.8,IMU,82004685,0,0.002944892,-0.004447066,0.000651544,0.8054165,0.08049343,-9.85711,0,0,29.68603,1,1,1000,1000
31312,25:30.9,IMU,82044669,0,0.002768891,-0.004763353,0.000667404,0.8063986,0.08156951,-9.856739,0,0,29.68807,1,1,1000,1000
31363,25:30.9,IMU,82084653,0,0.00219848,-0.005429481,0.000638383,0.8069005,0.07992645,-9.888084,0,0,29.69011,1,1,1000,1000
31415,25:30.9,IMU,82124637,0,0.00256019,-0.00486747,0.000644266,0.809022,0.08174935,-9.887587,0,0,29.69215,1,1,1000,1000
31514,25:31.0,IMU,82164621,0,0.002476608,-0.004397504,0.000723105,0.8064166,0.07980743,-9.886616,0,0,29.69419,1,1,1000,1000
31569,25:31.0,IMU,82204605,0,0.002363607,-0.00396681,0.000758703,0.8076613,0.08085157,-9.885262,0,0,29.69624,1,1,1000,1000
31667,25:31.1,IMU,82244589,0,0.002293026,-0.003526757,0.000684562,0.8070728,0.08119331,-9.883257,0,0,29.69827,1,1,1000,1000
31719,25:31.1,IMU,82285406,0,0.002206181,-0.003150686,0.000850773,0.8060813,0.08080584,-9.882339,0,0,29.70037,1,1,1000,1000
31771,25:31.1,IMU,82325390,0,0.002157177,-0.00476326,0.000779231,0.8059484,0.08041158,-9.883636,0,0,29.7024,1,1,1000,1000
31870,25:31.2,IMU,82365374,0,0.002068971,-0.00422811,0.000908371,0.8077508,0.0810381,-9.882877,0,0,29.70444,1,1,1000,1000
31924,25:31.2,IMU,82405358,0,0.001965602,-0.003766192,0.000827074,0.8064807,0.08149425,-9.881026,0,0,29.70648,1,1,1000,1000
32024,25:31.3,IMU,82445342,0,0.001944522,-0.003409488,0.00084862,0.8039157,0.08063613,-9.880472,0,0,29.70852,1,1,1000,1000
32078,25:31.3,IMU,82485326,0,0.001852888,-0.00304304,0.000930496,0.8043862,0.07990588,-9.878257,0,0,29.71056,1,1,1000,1000
32130,25:31.3,IMU,82525310,0,0.002956677,-0.002698958,0.000864487,0.8039742,0.08124855,-9.87356,0,0,29.7126,1,1,1000,1000
32231,25:31.4,IMU,82565294,0,0.001985763,-0.003731967,0.000663892,0.8026209,0.08055033,-9.856094,0,0,29.71464,1,1,1000,1000
32285,25:31.4,IMU,82605278,0,0.001518768,-0.00325795,0.000598104,0.8024814,0.08025992,-9.848925,0,0,29.71668,1,1,1000,1000
32384,25:31.5,IMU,82645262,0,0.001511498,-9.35e-05,0.000454695,0.8020524,0.08044913,-9.844273,0,0,29.71871,1,1,1000,1000
32435,25:31.5,IMU,82685246,0,0.001435752,-0.000689136,0.0005727,0.8022501,0.07959299,-9.841909,0,0,29.72075,1,1,1000,1000
32488,25:31.5,IMU,82725230,0,0.001515178,-0.000498118,0.000579812,0.8004966,0.08089476,-9.841411,0,0,29.72274,1,1,1000,1000
32588,25:31.6,IMU,82765214,0,0.001427186,-0.000405169,0.000653596,0.8009086,0.07982674,-9.841962,0,0,29.72477,1,1,1000,1000
32643,25:31.6,IMU,82805198,0,0.003113256,-0.000361174,0.000719965,0.799204,0.08060017,-9.820955,0,0,29.72681,1,1,1000,1000
32743,25:31.7,IMU,82845182,0,0.005655327,-0.001962093,0.000842288,0.7990975,0.08001346,-9.81834,0,0,29.72885,1,1,1000,1000
32795,25:31.7,IMU,82885166,0,0.004157581,0.001008593,0.00098476,0.7991353,0.08019049,-9.808984,0,0,29.73088,1,1,1000,1000
32847,25:31.7,IMU,82925150,0,0.000769093,0.000985516,0.000987919,0.7972037,0.08055632,-9.806223,0,0,29.73292,1,1,1000,1000
32946,25:31.8,IMU,82965134,0,0.000945368,0.000978451,0.00098908,0.7964526,0.07936037,-9.806344,0,0,29.73495,1,1,1000,1000
33000,25:31.8,IMU,83005118,0,0.000966079,0.001025789,0.001012487,0.7972279,0.08103616,-9.805994,0,0,29.73699,1,1,1000,1000
33100,25:31.9,IMU,83045102,0,0.001700758,0.000990971,0.001061595,0.796272,0.07985881,-9.803697,0,0,29.73903,1,1,1000,1000
33151,25:31.9,IMU,83085086,0,0.005507333,0.001673811,0.001100189,0.7956368,0.07995843,-9.784366,0,0,29.74106,1,1,1000,1000
33203,25:31.9,IMU,83125070,0,0.003090933,-0.00025304,0.001340468,0.7949334,0.08063588,-9.792297,0,0,29.74309,1,1,1000,1000
33302,25:32.0,IMU,83165054,0,0.000786008,-0.000819339,0.001325284,0.795479,0.079393,-9.789509,0,0,29.74518,1,1,1000,1000
33356,25:32.0,IMU,83205038,0,-0.000389834,-0.001594551,0.001327686,0.7939184,0.07976176,-9.788699,0,0,29.74721,1,1,1000,1000
33455,25:32.1,IMU,83245022,0,1.200664e-06,-0.001385144,0.001341319,0.7938299,0.07894617,-9.788611,0,0,29.74925,1,1,1000,1000
33507,25:32.1,IMU,83285006,0,0.000736798,-0.000486523,0.00132336,0.7944423,0.07832803,-9.788765,0,0,29.75128,1,1,1000,1000
33559,25:32.1,IMU,83324990,0,0.003946013,0.003541608,0.001379492,0.7950093,0.0792807,-9.788942,0,0,29.75326,1,1,1000,1000
33658,25:32.2,IMU,83364974,0,0.004664883,0.004242545,0.001467382,0.793033,0.08039199,-9.788086,0,0,29.75529,1,1,1000,1000
33712,25:32.2,IMU,83404958,0,0.003365593,0.002603706,0.00146163,0.7930325,0.07894929,-9.785805,0,0,29.75733,1,1,1000,1000
33812,25:32.3,IMU,83444942,0,0.001896034,0.002110705,0.001433324,0.7918198,0.07985136,-9.790335,0,0,29.75936,1,1,1000,1000
33865,25:32.3,IMU,83484926,0,0.00258843,0.002360047,0.001568952,0.7920454,0.08083873,-9.78451,0,0,29.76139,1,1,1000,1000
33917,25:32.3,IMU,83524910,0,0.002481669,0.002996634,0.001636397,0.7915818,0.07961461,-9.790224,0,0,29.76342,1,1,1000,1000
34018,25:32.4,IMU,83564894,0,0.001910881,0.000754994,0.001684535,0.7909134,0.07965212,-9.787048,0,0,29.76545,1,1,1000,1000
34072,25:32.4,IMU,83604878,0,-0.001176659,0.001843101,0.001761074,0.7918501,0.07951555,-9.781025,0,0,29.76749,1,1,1000,1000
34171,25:32.5,IMU,83644862,0,-0.001427194,0.003599006,0.001930836,0.7906692,0.07964097,-9.79045,0,0,29.76952,1,1,1000,1000
34222,25:32.5,IMU,83684846,0,-0.000315955,0.005047026,0.001978104,0.7905018,0.07969325,-9.790247,0,0,29.77155,1,1,1000,1000
34274,25:32.5,IMU,83724830,0,-0.000208339,0.004730529,0.001976057,0.7912067,0.07968511,-9.786016,0,0,29.77358,1,1,1000,1000
34374,25:32.6,IMU,83764814,0,-0.000389951,0.005174733,0.002003416,0.7891213,0.07843961,-9.787811,0,0,29.77561,1,1,1000,1000
34430,25:32.6,IMU,83804798,0,0.000256791,0.002547606,0.002032037,0.7888362,0.07927568,-9.789127,0,0,29.77764,1,1,1000,1000
34528,25:32.7,IMU,83844782,0,0.001069429,0.00259418,0.002116054,0.7900945,0.07857705,-9.78841,0,0,29.77967,1,1,1000,1000
34579,25:32.7,IMU,83884766,0,0.001840515,0.00294251,0.002103818,0.7898209,0.07753361,-9.789412,0,0,29.7817,1,1,1000,1000
34631,25:32.7,IMU,83924750,0,0.000941585,-0.000645605,0.002048047,0.7882333,0.07896584,-9.786002,0,0,29.78373,1,1,1000,1000
34730,25:32.8,IMU,83964734,0,0.000982134,-0.000385391,0.00209221,0.7892955,0.07795738,-9.786941,0,0,29.78575,1,1,1000,1000
34784,25:32.8,IMU,84004718,0,0.000922051,0.000547372,0.002176122,0.7899091,0.07861693,-9.785892,0,0,29.78778,1,1,1000,1000
34884,25:32.9,IMU,84044702,0,0.001420402,0.002438876,0.002285407,0.7896827,0.07850263,-9.788034,0,0,29.78981,1,1,1000,1000
34935,25:32.9,IMU,84084686,0,0.002828787,0.002065145,0.002361682,0.7882119,0.07759483,-9.784,0,0,29.79184,1,1,1000,1000
34988,25:32.9,IMU,84124670,0,0.003441309,0.003986621,0.002406873,0.7887551,0.07850865,-9.788446,0,0,29.79387,1,1,1000,1000
35087,25:33.0,IMU,84164654,0,0.00259978,0.00519247,0.002410875,0.7888525,0.07735758,-9.784545,0,0,29.79589,1,1,1000,1000
35141,25:33.0,IMU,84204638,0,0.00205282,0.002332827,0.002335441,0.789175,0.07715493,-9.783569,0,0,29.79792,1,1,1000,1000
35240,25:33.1,IMU,84244622,0,0.001338448,0.001455543,0.002413644,0.7886223,0.07769906,-9.784332,0,0,29.79995,1,1,1000,1000
35292,25:33.1,IMU,84284606,0,-0.000125288,0.002515974,0.002415698,0.7879528,0.07866299,-9.782328,0,0,29.80197,1,1,1000,1000
35344,25:33.1,IMU,84324590,0,-0.000977692,0.001825606,0.00252875,0.789282,0.07687217,-9.777744,0,0,29.804,1,1,1000,1000
35443,25:33.2,IMU,84365407,0,-0.002052922,0.001836141,0.002616166,0.7875503,0.07758506,-9.778469,0,0,29.80608,1,1,1000,1000
35497,25:33.2,IMU,84405391,0,-0.000809178,0.001781092,0.002708833,0.7866137,0.07702775,-9.774952,0,0,29.8081,1,1,1000,1000
35597,25:33.3,IMU,84445375,0,0.00101108,0.001806659,0.002713852,0.7877833,0.07666656,-9.771983,0,0,29.81013,1,1,1000,1000
35650,25:33.3,IMU,84485359,0,0.001051096,0.002062892,0.00267702,0.7870066,0.07788485,-9.772049,0,0,29.81215,1,1,1000,1000
35702,25:33.3,IMU,84525343,0,0.001082969,0.002556793,0.002440892,0.7873337,0.0771127,-9.771134,0,0,29.81418,1,1,1000,1000
35803,25:33.4,IMU,84565327,0,0.001037565,0.001567701,0.002346906,0.7859459,0.07803436,-9.77253,0,0,29.8162,1,1,1000,1000
35857,25:33.4,IMU,84605311,0,0.001096697,0.00245601,0.002206991,0.7877792,0.07732135,-9.772815,0,0,29.81823,1,1,1000,1000
35956,25:33.5,IMU,84645295,0,0.001117345,0.002233487,0.002143055,0.7864581,0.07738343,-9.772733,0,0,29.82025,1,1,1000,1000
36007,25:33.5,IMU,84685279,0,0.001101676,0.002179953,0.002027834,0.7871523,0.07771385,-9.771873,0,0,29.82227,1,1,1000,1000
36059,25:33.5,IMU,84725263,0,0.001123173,0.002106715,0.002016692,0.7866123,0.07681513,-9.772688,0,0,29.8243,1,1,1000,1000
36159,25:33.6,IMU,84765247,0,0.00115706,0.002007071,0.001882675,0.7877932,0.0768464,-9.771725,0,0,29.82632,1,1,1000,1000
36215,25:33.6,IMU,84805231,0,0.001143654,0.001924474,0.001853169,0.7876425,0.07549708,-9.772202,0,0,29.82829,1,1,1000,1000
36313,25:33.7,IMU,84845215,0,0.001134446,0.001876737,0.001811047,0.787487,0.07646739,-9.772906,0,0,29.83032,1,1,1000,1000
36364,25:33.7,IMU,84885199,0,0.001141297,0.001866126,0.001733811,0.787685,0.07728756,-9.772696,0,0,29.83234,1,1,1000,1000
36416,25:33.7,IMU,84925183,0,0.001223337,0.001755349,0.001710914,0.7863286,0.07617144,-9.772857,0,0,29.83436,1,1,1000,1000
36515,25:33.8,IMU,84965167,0,0.001144248,0.00175922,0.001718757,0.7874488,0.07634729,-9.772626,0,0,29.83638,1,1,1000,1000
36569,25:33.8,IMU,85005151,0,0.00114854,0.001972249,0.001569056,0.7866136,0.07671019,-9.771424,0,0,29.83841,1,1,1000,1000
36669,25:33.9,IMU,85045135,0,0.001106638,-8.41e-05,0.001810839,0.7864451,0.07700423,-9.768721,0,0,29.84043,1,1,1000,1000
36720,25:33.9,IMU,85085119,0,0.001166976,0.000971752,0.002013661,0.7868729,0.07671431,-9.767107,0,0,29.84245,1,1,1000,1000
36772,25:33.9,IMU,85125103,0,0.001177739,0.001851817,0.002254091,0.786564,0.07648472,-9.767674,0,0,29.84447,1,1,1000,1000
36871,25:34.0,IMU,85165087,0,0.001141427,0.004198373,0.002268563,0.7880085,0.07710668,-9.773335,0,0,29.84649,1,1,1000,1000
36925,25:34.0,IMU,85205071,0,0.00118275,0.001059596,0.00231525,0.786867,0.07624705,-9.772961,0,0,29.84851,1,1,1000,1000
37023,25:34.1,IMU,85245055,0,0.001175428,0.001157752,0.002153734,0.7871912,0.07551239,-9.774164,0,0,29.85058,1,1,1000,1000
37076,25:34.1,IMU,85285039,0,0.00120839,0.003686783,0.002257376,0.7877231,0.07669874,-9.77211,0,0,29.8526,1,1,1000,1000
37128,25:34.1,IMU,85325023,0,0.001193008,0.000862119,0.002211638,0.7878463,0.07655524,-9.767879,0,0,29.85462,1,1,1000,1000
37228,25:34.2,IMU,85365007,0,0.001139278,0.001138338,0.002340707,0.7881969,0.07678865,-9.769036,0,0,29.85664,1,1,1000,1000
37282,25:34.2,IMU,85404991,0,0.001192615,0.002339348,0.002439135,0.7867934,0.07522111,-9.770083,0,0,29.85861,1,1,1000,1000
37382,25:34.3,IMU,85444975,0,0.001195856,0.00068164,0.002353919,0.7872752,0.07622319,-9.774393,0,0,29.86063,1,1,1000,1000
37435,25:34.3,IMU,85484959,0,0.001843587,0.000793845,0.002377917,0.7870528,0.07542436,-9.775428,0,0,29.86264,1,1,1000,1000
37487,25:34.3,IMU,85524943,0,0.002038364,0.000829985,0.00229335,0.7883543,0.07543331,-9.775702,0,0,29.86466,1,1,1000,1000
37588,25:34.4,IMU,85564927,0,0.002011459,0.00084465,0.002130916,0.7884873,0.07678437,-9.774199,0,0,29.86668,1,1,1000,1000
37642,25:34.4,IMU,85604911,0,0.001988573,0.00091734,0.002066562,0.7878675,0.07576147,-9.775752,0,0,29.8687,1,1,1000,1000
37741,25:34.5,IMU,85644895,0,0.002992584,0.00092535,0.002073691,0.7884734,0.07522858,-9.779638,0,0,29.87072,1,1,1000,1000
37792,25:34.5,IMU,85684879,0,0.00388229,0.000956994,0.002290011,0.7878549,0.07503931,-9.78388,0,0,29.87273,1,1,1000,1000
37844,25:34.5,IMU,85724863,0,0.003400335,0.000935905,0.002526775,0.7885191,0.07549496,-9.783818,0,0,29.87475,1,1,1000,1000
37943,25:34.6,IMU,85764847,0,0.002216766,0.000972389,0.002733852,0.7875268,0.07576817,-9.783289,0,0,29.87677,1,1,1000,1000
38000,25:34.6,IMU,85804831,0,0.001168142,0.000942541,0.002919497,0.789114,0.07571746,-9.784001,0,0,29.87878,1,1,1000,1000
38098,25:34.7,IMU,85844815,0,0.000877502,0.003095472,0.00302364,0.7882612,0.07555669,-9.787497,0,0,29.8808,1,1,1000,1000
38149,25:34.7,IMU,85884799,0,0.002596867,0.006675209,0.00316854,0.7882689,0.0746985,-9.790937,0,0,29.88281,1,1,1000,1000
38201,25:34.7,IMU,85924783,0,0.002351577,0.006555241,0.002999816,0.789191,0.07465724,-9.79202,0,0,29.88483,1,1,1000,1000
38300,25:34.8,IMU,85964767,0,0.001234382,0.003068592,0.002874902,0.7885067,0.07527926,-9.790808,0,0,29.88684,1,1,1000,1000
38354,25:34.8,IMU,86004751,0,0.002019946,0.003073049,0.002701151,0.7887477,0.07557514,-9.791523,0,0,29.88886,1,1,1000,1000
38454,25:34.9,IMU,86044735,0,0.002439865,0.001278606,0.00257965,0.7893491,0.07446558,-9.794051,0,0,29.89087,1,1,1000,1000
38505,25:34.9,IMU,86084719,0,0.002850169,0.00068763,0.002338121,0.7891683,0.07484828,-9.793582,0,0,29.89289,1,1,1000,1000
38557,25:34.9,IMU,86124703,0,0.003001399,0.000366254,0.002158107,0.7891806,0.0738992,-9.793711,0,0,29.8949,1,1,1000,1000
38656,25:35.0,IMU,86164687,0,0.002976668,0.000119369,0.00202497,0.7888149,0.0747721,-9.793378,0,0,29.89692,1,1,1000,1000
38710,25:35.0,IMU,86204671,0,0.001985987,-0.000873869,0.001843387,0.7892618,0.07364509,-9.792576,0,0,29.89893,1,1,1000,1000
38808,25:35.1,IMU,86244655,0,0.002189155,0.001400846,0.001719284,0.7894896,0.07427174,-9.79733,0,0,29.90094,1,1,1000,1000
38859,25:35.1,IMU,86284639,0,0.000691904,0.001443028,0.001554625,0.7895513,0.0740338,-9.791941,0,0,29.90296,1,1,1000,1000
38913,25:35.1,IMU,86324623,0,-0.000585394,0.00147607,0.00134903,0.7896606,0.07235214,-9.792471,0,0,29.90497,1,1,1000,1000
39012,25:35.2,IMU,86364607,0,-0.000544425,0.001402769,0.001330177,0.7898676,0.07358488,-9.794085,0,0,29.90698,1,1,1000,1000
39066,25:35.2,IMU,86404591,0,-0.001851135,0.000746551,0.001209417,0.7899125,0.07368697,-9.791079,0,0,29.90899,1,1,1000,1000
39168,25:35.3,IMU,86445408,0,-0.00020916,0.001899048,0.001264266,0.7897512,0.07301338,-9.790947,0,0,29.91106,1,1,1000,1000
39221,25:35.3,IMU,86485392,0,-0.000583257,0.002988234,0.0012031,0.7907716,0.07306456,-9.790808,0,0,29.91307,1,1,1000,1000
39273,25:35.3,IMU,86525376,0,-0.000256073,0.00286719,0.001213779,0.7910248,0.07249407,-9.791224,0,0,29.91508,1,1,1000,1000
39374,25:35.4,IMU,86565360,0,-0.00105685,0.002204078,0.00112354,0.790814,0.07308127,-9.787426,0,0,29.91709,1,1,1000,1000
39429,25:35.4,IMU,86605344,0,-0.002958794,0.000929057,0.00118372,0.7896537,0.07272171,-9.785425,0,0,29.9191,1,1,1000,1000
39527,25:35.5,IMU,86645328,0,-0.000847173,0.002517661,0.001210983,0.7900716,0.0731759,-9.783774,0,0,29.92111,1,1,1000,1000
39579,25:35.5,IMU,86685312,0,-1.96e-05,0.002550588,0.00126689,0.7899491,0.07238978,-9.78174,0,0,29.92312,1,1,1000,1000
39631,25:35.5,IMU,86725296,0,0.001342306,0.001321365,0.001283685,0.7899752,0.07161135,-9.781491,0,0,29.92513,1,1,1000,1000
39730,25:35.6,IMU,86765280,0,0.000558546,0.000671147,0.001234307,0.7885437,0.07162385,-9.773748,0,0,29.92714,1,1,1000,1000
39787,25:35.6,IMU,86805264,0,0.000654226,-0.000389368,0.001231843,0.790288,0.07269711,-9.77556,0,0,29.92915,1,1,1000,1000
39887,25:35.7,IMU,86845248,0,0.000675843,0.00174073,0.001102693,0.7897666,0.07257047,-9.778933,0,0,29.93116,1,1,1000,1000
39938,25:35.7,IMU,86885232,0,0.001670226,0.001972646,0.000879131,0.7888842,0.07380738,-9.780753,0,0,29.93312,1,1,1000,1000
39990,25:35.7,IMU,86925216,0,0.001595994,0.002891649,0.000665192,0.7914017,0.07359722,-9.780611,0,0,29.93513,1,1,1000,1000
40089,25:35.8,IMU,86965200,0,0.001569748,0.002176781,0.000573106,0.7907632,0.07244562,-9.777035,0,0,29.93714,1,1,1000,1000
40143,25:35.8,IMU,87005184,0,0.001533517,0.002754929,0.000603965,0.7905092,0.07204276,-9.774304,0,0,29.93915,1,1,1000,1000
40243,25:35.9,IMU,87045168,0,0.001525057,0.002611912,0.000603973,0.7918636,0.07248207,-9.775494,0,0,29.94115,1,1,1000,1000
40294,25:35.9,IMU,87085152,0,0.001521966,0.00256801,0.000680829,0.7914516,0.07244983,-9.77488,0,0,29.94316,1,1,1000,1000
40346,25:35.9,IMU,87125136,0,0.001466882,0.002440862,0.000727172,0.7908486,0.07111131,-9.774326,0,0,29.94517,1,1,1000,1000
40445,25:36.0,IMU,87165120,0,0.001448411,0.002319945,0.000777687,0.7911177,0.07175206,-9.774936,0,0,29.94718,1,1,1000,1000
40499,25:36.0,IMU,87205104,0,-0.002166185,0.001667998,0.000797596,0.7913468,0.07244064,-9.782597,0,0,29.94918,1,1,1000,1000
40601,25:36.1,IMU,87245088,0,0.000920335,0.000368648,0.001039017,0.7905729,0.07201638,-9.774329,0,0,29.95119,1,1,1000,1000
40653,25:36.1,IMU,87285072,0,0.000794911,0.001667443,0.000957688,0.7911437,0.07209381,-9.778317,0,0,29.9532,1,1,1000,1000
40707,25:36.1,IMU,87325056,0,-0.000544487,0.00309886,0.000764103,0.7915104,0.07088223,-9.787233,0,0,29.95525,1,1,1000,1000
40806,25:36.2,IMU,87365040,0,-0.004884231,0.002543898,0.000428914,0.7929616,0.07163811,-9.791134,0,0,29.95726,1,1,1000,1000
40860,25:36.2,IMU,87405024,0,-0.01292201,0.001425896,0.000129933,0.7915255,0.07189494,-9.787489,0,0,29.95926,1,1,1000,1000
40960,25:36.3,IMU,87445008,0,-0.02369624,-0.000441887,-0.000322267,0.7920288,0.07355505,-9.791248,0,0,29.96127,1,1,1000,1000
41013,25:36.3,IMU,87484992,0,-0.03918039,0.000805176,-0.000839332,0.7921183,0.07281294,-9.800612,0,0,29.96322,1,1,1000,1000
41065,25:36.3,IMU,87524976,0,-0.05057411,-0.002599712,-0.001377704,0.7932715,0.07243272,-9.807177,0,0,29.96523,1,1,1000,1000
41166,25:36.4,IMU,87564960,0,-0.06482314,-0.002632862,-0.002182017,0.7927493,0.07249825,-9.814142,0,0,29.96723,1,1,1000,1000
41220,25:36.4,IMU,87604944,0,-0.07849716,-0.006341859,-0.003036728,0.7937868,0.0734957,-9.832726,0,0,29.96924,1,1,1000,1000
41318,25:36.5,IMU,87644928,0,-0.08578425,-0.004572823,-0.003943874,0.7942197,0.07388941,-9.848941,0,0,29.97124,1,1,1000,1000
41370,25:36.5,IMU,87684912,0,-0.09297226,-0.00509658,-0.00488577,0.7924262,0.07609151,-9.856179,0,0,29.97325,1,1,1000,1000
41422,25:36.5,IMU,87724896,0,-0.0941499,-0.007338083,-0.0059451,0.7935764,0.07732789,-9.867038,0,0,29.97525,1,1,1000,1000
41521,25:36.6,IMU,87764880,0,-0.09630261,-0.008900994,-0.00703916,0.7946426,0.07935615,-9.889562,0,0,29.97725,1,1,1000,1000
41577,25:36.6,IMU,87804864,0,-0.09750864,-0.008647988,-0.008346356,0.7949386,0.08219884,-9.89535,0,0,29.97926,1,1,1000,1000
41676,25:36.7,IMU,87844848,0,-0.09405094,-0.006886709,-0.009392476,0.7957992,0.08575171,-9.919696,0,0,29.98126,1,1,1000,1000
41727,25:36.7,IMU,87884832,0,-0.09200095,-0.006205591,-0.0105571,0.7940203,0.08951867,-9.917723,0,0,29.98326,1,1,1000,1000
41779,25:36.7,IMU,87924816,0,-0.09364598,-0.007515915,-0.01186724,0.7948408,0.09346106,-9.947434,0,0,29.98526,1,1,1000,1000
41878,25:36.8,IMU,87964800,0,-0.09093454,-0.006821805,-0.01313734,0.7941619,0.09694373,-9.944212,0,0,29.98726,1,1,1000,1000
41932,25:36.8,IMU,88004784,0,-0.09305719,-0.009922586,-0.01449477,0.7943487,0.1014483,-9.971722,0,0,29.98927,1,1,1000,1000
42032,25:36.9,IMU,88044768,0,-0.0880726,-0.007827313,-0.01549971,0.7948007,0.1064636,-9.980618,0,0,29.99127,1,1,1000,1000
42083,25:36.9,IMU,88084752,0,-0.08669579,-0.005391485,-0.01696618,0.7937898,0.1135096,-9.995419,0,0,29.99327,1,1,1000,1000
42135,25:36.9,IMU,88124736,0,-0.08782907,-0.00694403,-0.01804801,0.7946655,0.119014,-10.01569,0,0,29.99527,1,1,1000,1000
42234,25:37.0,IMU,88164720,0,-0.08905427,-0.007089044,-0.019443,0.7944841,0.1245877,-10.01935,0,0,29.99727,1,1,1000,1000
42288,25:37.0,IMU,88204704,0,-0.0889955,-0.00939717,-0.02078164,0.7929394,0.1315859,-10.03874,0,0,29.99927,1,1,1000,1000
42386,25:37.1,IMU,88244688,0,-0.08396061,-0.007416184,-0.02191048,0.7928295,0.1386661,-10.04877,0,0,30.00127,1,1,1000,1000
42437,25:37.1,IMU,88284672,0,-0.0843384,-0.007649978,-0.02312381,0.792344,0.1465006,-10.06628,0,0,30.00327,1,1,1000,1000
42490,25:37.1,IMU,88324656,0,-0.08093341,-0.00690177,-0.02416888,0.7924188,0.1534341,-10.07366,0,0,30.00527,1,1,1000,1000
42590,25:37.2,IMU,88364640,0,-0.08293057,-0.008128506,-0.02540481,0.791199,0.1619809,-10.08914,0,0,30.00727,1,1,1000,1000
42644,25:37.2,IMU,88404624,0,-0.08315457,-0.00896192,-0.02649532,0.7899508,0.1699055,-10.10402,0,0,30.00927,1,1,1000,1000
42744,25:37.3,IMU,88444608,0,-0.08368987,-0.00835139,-0.02770634,0.7893182,0.179628,-10.1151,0,0,30.01126,1,1,1000,1000
42797,25:37.3,IMU,88484592,0,-0.08394025,-0.005945197,-0.02899637,0.7895578,0.1886093,-10.13521,0,0,30.01326,1,1,1000,1000
42849,25:37.3,IMU,88525409,0,-0.08126694,-0.006069561,-0.03005088,0.7884635,0.1982345,-10.14279,0,0,30.01531,1,1,1000,1000
42950,25:37.4,IMU,88565393,0,-0.08031697,-0.007090031,-0.03144725,0.7871776,0.2096364,-10.159,0,0,30.01731,1,1,1000,1000
43004,25:37.4,IMU,88605377,0,-0.08324454,-0.008345,-0.03703612,0.7862301,0.2185923,-10.16796,0,0,30.01931,1,1,1000,1000
43102,25:37.5,IMU,88645361,0,-0.0829023,-0.004396177,-0.05865856,0.784559,0.2315898,-10.18163,0,0,30.02131,1,1,1000,1000
43154,25:37.5,IMU,88685345,0,-0.08322091,-0.004390259,-0.1050601,0.7812048,0.2419252,-10.19438,0,0,30.0233,1,1,1000,1000
43206,25:37.5,IMU,88725329,0,-0.08450536,-0.007162038,-0.1802103,0.7766039,0.257339,-10.20946,0,0,30.0253,1,1,1000,1000
43305,25:37.6,IMU,88765313,0,-0.0856218,-0.00786203,-0.2846422,0.7693791,0.2739125,-10.22558,0,0,30.02729,1,1,1000,1000
43360,25:37.6,IMU,88805297,0,-0.08756743,-0.0108762,-0.4156597,0.7584918,0.2918491,-10.24288,0,0,30.02929,1,1,1000,1000
43460,25:37.7,IMU,88845281,0,-0.08737675,-0.01236598,-0.5596847,0.7472394,0.3179112,-10.25374,0,0,30.03129,1,1,1000,1000
43512,25:37.7,IMU,88885265,0,-0.08886175,-0.01221468,-0.7013799,0.7348083,0.3494667,-10.26577,0,0,30.03328,1,1,1000,1000
43564,25:37.7,IMU,88925249,0,-0.08746557,-0.01683175,-0.8309609,0.7184157,0.3849778,-10.28327,0,0,30.03528,1,1,1000,1000
43663,25:37.8,IMU,88965233,0,-0.0870905,-0.02175916,-0.9400996,0.6989072,0.423991,-10.29635,0,0,30.03722,1,1,1000,1000
43717,25:37.8,IMU,89005217,0,-0.0896787,-0.02826701,-1.032966,0.6744718,0.4691144,-10.31129,0,0,30.03922,1,1,1000,1000
43817,25:37.9,IMU,89045201,0,-0.08944453,-0.03230547,-1.105713,0.6452943,0.5165209,-10.32486,0,0,30.04121,1,1,1000,1000
43868,25:37.9,IMU,89085185,0,-0.08875906,-0.03647355,-1.160057,0.6112801,0.5645823,-10.33956,0,0,30.04321,1,1,1000,1000
43920,25:37.9,IMU,89125169,0,-0.08852866,-0.04169014,-1.198466,0.575193,0.6144122,-10.35357,0,0,30.0452,1,1,1000,1000
44019,25:38.0,IMU,89165153,0,-0.08781295,-0.04837023,-1.2234,0.5345445,0.6661831,-10.36999,0,0,30.0472,1,1,1000,1000
44073,25:38.0,IMU,89205137,0,-0.08792315,-0.0547841,-1.237239,0.4907181,0.7146189,-10.38225,0,0,30.04919,1,1,1000,1000
44171,25:38.1,IMU,89245121,0,-0.08722797,-0.06103049,-1.242267,0.4444654,0.7606761,-10.39522,0,0,30.05118,1,1,1000,1000
44222,25:38.1,IMU,89285105,0,-0.08727282,-0.06579763,-1.240463,0.3982151,0.8065844,-10.40974,0,0,30.05317,1,1,1000,1000
44275,25:38.1,IMU,89325089,0,-0.08669334,-0.07182562,-1.233757,0.3496631,0.8487026,-10.42228,0,0,30.05517,1,1,1000,1000
44375,25:38.2,IMU,89365073,0,-0.08541685,-0.07854065,-1.223163,0.3003286,0.8881446,-10.44219,0,0,30.05716,1,1,1000,1000
44429,25:38.2,IMU,89405057,0,-0.08302468,-0.08459409,-1.210021,0.2486911,0.9228055,-10.45316,0,0,30.0592,1,1,1000,1000
44529,25:38.3,IMU,89445041,0,-0.07992309,-0.0888904,-1.195011,0.2015019,0.956274,-10.47056,0,0,30.06119,1,1,1000,1000
44582,25:38.3,IMU,89485025,0,-0.07859169,-0.09035479,-1.178623,0.1525643,0.9845891,-10.47826,0,0,30.06319,1,1,1000,1000
44634,25:38.3,IMU,89525009,0,-0.077367,-0.09780028,-1.16203,0.1037281,1.008743,-10.49735,0,0,30.06518,1,1,1000,1000
44735,25:38.4,IMU,89564993,0,-0.07409626,-0.1014827,-1.145275,0.0572981,1.028187,-10.51586,0,0,30.06712,1,1,1000,1000
44789,25:38.4,IMU,89604977,0,-0.07014453,-0.1022553,-1.128921,0.01024696,1.04469,-10.54003,0,0,30.06911,1,1,1000,1000
44887,25:38.5,IMU,89644961,0,-0.06763201,-0.1055596,-1.113315,-0.0344477,1.057144,-10.55199,0,0,30.0711,1,1,1000,1000
44939,25:38.5,IMU,89684945,0,-0.06370064,-0.1041342,-1.098586,-0.08304115,1.064869,-10.56715,0,0,30.07309,1,1,1000,1000
44991,25:38.5,IMU,89724929,0,-0.06124941,-0.1028739,-1.085041,-0.1333711,1.068081,-10.58498,0,0,30.07508,1,1,1000,1000
45090,25:38.6,IMU,89764913,0,-0.05228331,-0.1008328,-1.072859,-0.1866146,1.067933,-10.60277,0,0,30.07707,1,1,1000,1000
45145,25:38.6,IMU,89804897,0,-0.04302588,-0.09744985,-1.062275,-0.2440075,1.062653,-10.62798,0,0,30.07906,1,1,1000,1000
45244,25:38.7,IMU,89844881,0,-0.03814612,-0.0889659,-1.053301,-0.3025782,1.053251,-10.63588,0,0,30.08105,1,1,1000,1000
45296,25:38.7,IMU,89884865,0,-0.03257925,-0.07763418,-1.045881,-0.3625231,1.040859,-10.64915,0,0,30.08304,1,1,1000,1000
45349,25:38.7,IMU,89924849,0,-0.02627063,-0.0644218,-1.040182,-0.4260544,1.023878,-10.65846,0,0,30.08503,1,1,1000,1000
45448,25:38.8,IMU,89964833,0,-0.01729346,-0.05411051,-1.03305,-0.4909919,1.00394,-10.66291,0,0,30.08702,1,1,1000,1000
45503,25:38.8,IMU,90004817,0,-0.008109793,-0.04507313,-1.012164,-0.5585936,0.9790373,-10.67052,0,0,30.089,1,1,1000,1000
45603,25:38.9,IMU,90044801,0,-0.005976932,-0.03937691,-0.9674745,-0.6245437,0.9518592,-10.66226,0,0,30.09099,1,1,1000,1000
45654,25:38.9,IMU,90084785,0,-0.004803246,-0.03147,-0.8969195,-0.6900128,0.9230596,-10.66572,0,0,30.09298,1,1,1000,1000
45706,25:38.9,IMU,90124769,0,-0.001379091,-0.0222061,-0.8040746,-0.7509228,0.8939338,-10.65842,0,0,30.09497,1,1,1000,1000
45805,25:39.0,IMU,90164753,0,0.001227625,-0.01332914,-0.6957064,-0.8082794,0.8653069,-10.65252,0,0,30.09695,1,1,1000,1000
45859,25:39.0,IMU,90204737,0,0.005024053,-0.00405722,-0.5790936,-0.862614,0.8389343,-10.64298,0,0,30.09894,1,1,1000,1000
45957,25:39.1,IMU,90244721,0,0.003378461,0.003942782,-0.4601765,-0.9112423,0.8177587,-10.62524,0,0,30.10093,1,1,1000,1000
46008,25:39.1,IMU,90284705,0,0.000268953,0.01417862,-0.3456252,-0.9536172,0.7994006,-10.60952,0,0,30.10291,1,1,1000,1000
46060,25:39.1,IMU,90324689,0,0.002586584,0.02161417,-0.2399436,-0.9926471,0.7854351,-10.58719,0,0,30.1049,1,1,1000,1000
46160,25:39.2,IMU,90364673,0,0.001213887,0.02803089,-0.1456805,-1.02855,0.7765703,-10.5695,0,0,30.10689,1,1,1000,1000
46215,25:39.2,IMU,90404657,0,0.000379112,0.03228839,-0.06502484,-1.059156,0.7729,-10.54792,0,0,30.10887,1,1,1000,1000
46315,25:39.3,IMU,90444641,0,-0.003061742,0.03514997,0.001321957,-1.086705,0.7690415,-10.52341,0,0,30.11086,1,1,1000,1000
46368,25:39.3,IMU,90484625,0,-0.006909424,0.03458249,0.05323484,-1.114625,0.7701064,-10.49703,0,0,30.11284,1,1,1000,1000
46420,25:39.3,IMU,90524609,0,-0.007824505,0.03376073,0.09150539,-1.135209,0.7741385,-10.47363,0,0,30.11483,1,1,1000,1000
46522,25:39.4,IMU,90564593,0,-0.007156421,0.03102117,0.117374,-1.155875,0.7799001,-10.45071,0,0,30.11681,1,1,1000,1000
46576,25:39.4,IMU,90605410,0,-0.006442059,0.02848137,0.1326618,-1.175527,0.7862506,-10.42509,0,0,30.11885,1,1,1000,1000
46674,25:39.5,IMU,90645394,0,-0.00874441,0.0306891,0.1385214,-1.19208,0.7929192,-10.39921,0,0,30.12083,1,1,1000,1000
46726,25:39.5,IMU,90685378,0,-0.01235874,0.02864424,0.1369132,-1.209576,0.8009728,-10.37912,0,0,30.12281,1,1,1000,1000
46778,25:39.5,IMU,90725362,0,-0.0121315,0.0261589,0.1295974,-1.224866,0.8086537,-10.35624,0,0,30.1248,1,1,1000,1000
46877,25:39.6,IMU,90765346,0,-0.01105249,0.02214425,0.1183517,-1.240312,0.8153473,-10.33174,0,0,30.12678,1,1,1000,1000
46932,25:39.6,IMU,90805330,0,-0.009696234,0.01886916,0.1044215,-1.25717,0.8228113,-10.3108,0,0,30.12877,1,1,1000,1000
47031,25:39.7,IMU,90845314,0,-0.008868931,0.017697,0.08908955,-1.272516,0.8284299,-10.29269,0,0,30.13075,1,1,1000,1000
47085,25:39.7,IMU,90885298,0,-0.01123814,0.01191167,0.07331587,-1.290265,0.8348317,-10.27104,0,0,30.13273,1,1,1000,1000
47137,25:39.7,IMU,90925282,0,-0.0136395,0.009063521,0.05807603,-1.305807,0.8389094,-10.24601,0,0,30.13471,1,1,1000,1000
47236,25:39.8,IMU,90965266,0,-0.01186163,0.007263438,0.04340994,-1.321896,0.8424345,-10.22741,0,0,30.13669,1,1,1000,1000
47290,25:39.8,IMU,91005250,0,-0.01046048,0.006858598,0.03028823,-1.338762,0.8469645,-10.2045,0,0,30.13867,1,1,1000,1000
47390,25:39.9,IMU,91045234,0,-0.0106631,0.00552835,0.01884694,-1.357098,0.8493003,-10.19575,0,0,30.14066,1,1,1000,1000
47441,25:39.9,IMU,91085218,0,-0.009956695,0.002505668,0.009567162,-1.372753,0.8510932,-10.17197,0,0,30.14259,1,1,1000,1000
47493,25:39.9,IMU,91125202,0,-0.01130536,0.000274031,0.001716763,-1.391071,0.853119,-10.15213,0,0,30.14457,1,1,1000,1000
47592,25:40.0,IMU,91165186,0,-0.01025041,0.003927737,-0.004335149,-1.407126,0.8546993,-10.12963,0,0,30.14655,1,1,1000,1000
47646,25:40.0,IMU,91205170,0,-0.005190818,0.004814809,-0.00891133,-1.425042,0.854938,-10.1248,0,0,30.14853,1,1,1000,1000
47745,25:40.1,IMU,91245154,0,-0.005171946,0.003904905,-0.01205148,-1.444382,0.8578084,-10.09713,0,0,30.15051,1,1,1000,1000
47796,25:40.1,IMU,91285138,0,-0.005785926,0.007347724,-0.01376231,-1.460252,0.8578441,-10.08387,0,0,30.15249,1,1,1000,1000
47848,25:40.1,IMU,91325122,0,-0.004883002,0.01018233,-0.01462798,-1.477909,0.8590561,-10.0571,0,0,30.15447,1,1,1000,1000
47948,25:40.2,IMU,91365106,0,-0.008241439,0.008311229,-0.0146236,-1.49455,0.8595293,-10.04627,0,0,30.15645,1,1,1000,1000
48004,25:40.2,IMU,91405090,0,-0.009199149,0.008783782,-0.01410648,-1.510209,0.8609345,-10.02393,0,0,30.15843,1,1,1000,1000
48104,25:40.3,IMU,91445074,0,-0.009683775,0.01114607,-0.01295426,-1.526545,0.8625523,-10.00856,0,0,30.16041,1,1,1000,1000
48161,25:40.3,IMU,91485058,0,-0.01101399,0.01394494,-0.01147261,-1.544126,0.8633306,-9.993241,0,0,30.16243,1,1,1000,1000
48213,25:40.3,IMU,91525042,0,-0.01114845,0.01710962,-0.009942046,-1.558465,0.8636986,-9.966194,0,0,30.16441,1,1,1000,1000
48316,25:40.4,IMU,91565026,0,-0.008992829,0.01797668,-0.00830256,-1.572972,0.864243,-9.9523,0,0,30.16639,1,1,1000,1000
48370,25:40.4,IMU,91605010,0,-0.005940743,0.02010646,-0.006627189,-1.588631,0.8664282,-9.927822,0,0,30.16837,1,1,1000,1000
48468,25:40.5,IMU,91644994,0,-0.005172709,0.01816039,-0.005248448,-1.602597,0.8678237,-9.918359,0,0,30.1703,1,1,1000,1000
48520,25:40.5,IMU,91684978,0,-0.009293988,0.0206597,-0.003665659,-1.618075,0.869903,-9.899677,0,0,30.17227,1,1,1000,1000
48572,25:40.5,IMU,91724962,0,-0.01083158,0.02406121,-0.002217588,-1.632018,0.8708204,-9.872849,0,0,30.17425,1,1,1000,1000
48671,25:40.6,IMU,91764946,0,-0.009647392,0.02137763,-0.001241729,-1.643478,0.8723944,-9.864307,0,0,30.17623,1,1,1000,1000
48726,25:40.6,IMU,91804930,0,-0.007796988,0.02481995,-7.06e-05,-1.656276,0.8751776,-9.8526,0,0,30.1782,1,1,1000,1000
48825,25:40.7,IMU,91844914,0,-0.007457754,0.03089878,0.000736943,-1.668705,0.8774195,-9.821823,0,0,30.18018,1,1,1000,1000
48876,25:40.7,IMU,91884898,0,-0.006521758,0.03330982,0.001402324,-1.682314,0.8792113,-9.816711,0,0,30.18215,1,1,1000,1000
48930,25:40.7,IMU,91924882,0,-0.006597579,0.03342738,0.001972854,-1.6936,0.8806736,-9.788639,0,0,30.18413,1,1,1000,1000
49029,25:40.8,IMU,91964866,0,-0.004607861,0.03725433,0.002174588,-1.704697,0.8839051,-9.780911,0,0,30.1861,1,1,1000,1000
49083,25:40.8,IMU,92004850,0,-0.005841606,0.03666379,0.002676915,-1.715802,0.8845038,-9.75984,0,0,30.18808,1,1,1000,1000
49183,25:40.9,IMU,92044834,0,-0.00605518,0.03936074,0.002967369,-1.726867,0.887001,-9.746235,0,0,30.19005,1,1,1000,1000
49234,25:40.9,IMU,92084818,0,-0.00981047,0.04447168,0.003193306,-1.736329,0.8910301,-9.727514,0,0,30.19203,1,1,1000,1000
49286,25:40.9,IMU,92124802,0,-0.008576121,0.04463604,0.003259934,-1.747194,0.8926451,-9.713268,0,0,30.194,1,1,1000,1000
49385,25:41.0,IMU,92164786,0,-0.01051087,0.04791587,0.003347404,-1.755541,0.8951814,-9.694971,0,0,30.19598,1,1,1000,1000
49439,25:41.0,IMU,92204770,0,-0.007247756,0.0457145,0.003228277,-1.765732,0.8973932,-9.678225,0,0,30.19795,1,1,1000,1000
49537,25:41.1,IMU,92244754,0,-0.009830359,0.05194774,0.003481276,-1.773889,0.8979295,-9.661463,0,0,30.19992,1,1,1000,1000
49588,25:41.1,IMU,92284738,0,-0.008021196,0.05246771,0.00330484,-1.780972,0.9012433,-9.652747,0,0,30.2019,1,1,1000,1000
49640,25:41.1,IMU,92324722,0,-0.01041314,0.05389429,0.003342994,-1.788845,0.9040071,-9.634394,0,0,30.20387,1,1,1000,1000
49740,25:41.2,IMU,92364706,0,-0.006700853,0.04641818,0.003057004,-1.795678,0.9066238,-9.620008,0,0,30.20584,1,1,1000,1000
49794,25:41.2,IMU,92404690,0,-0.009525206,0.04439778,0.003167453,-1.801277,0.9083462,-9.606377,0,0,30.20782,1,1,1000,1000
49895,25:41.3,IMU,92444674,0,-0.004735427,0.04233046,0.002879694,-1.806871,0.9112781,-9.592265,0,0,30.20979,1,1,1000,1000
49949,25:41.3,IMU,92484658,0,-0.008579908,0.03369915,0.002773439,-1.812094,0.9131207,-9.586917,0,0,30.21176,1,1,1000,1000
50001,25:41.3,IMU,92524642,0,-0.01049113,0.02083307,0.002534133,-1.813776,0.9163218,-9.571311,0,0,30.21373,1,1,1000,1000
50103,25:41.4,IMU,92564626,0,-0.009219539,0.009500743,0.002018574,-1.817821,0.9182849,-9.572351,0,0,30.2157,1,1,1000,1000
50157,25:41.4,IMU,92604610,0,-0.008112251,0.000218714,0.001639857,-1.819342,0.9212388,-9.57193,0,0,30.21767,1,1,1000,1000
50255,25:41.5,IMU,92644594,0,-0.007027507,-0.005549334,0.001232238,-1.820912,0.9242784,-9.563303,0,0,30.21965,1,1,1000,1000
50307,25:41.5,IMU,92684578,0,-0.006075852,-0.004578781,0.001345231,-1.824066,0.9263277,-9.561272,0,0,30.22161,1,1,1000,1000
50359,25:41.5,IMU,92725395,0,-0.005320221,0.001363968,0.001283209,-1.82522,0.9294882,-9.564925,0,0,30.22364,1,1,1000,1000
50458,25:41.6,IMU,92765379,0,-0.004633628,0.005447691,0.001309142,-1.826725,0.9338174,-9.557088,0,0,30.22561,1,1,1000,1000
50513,25:41.6,IMU,92805363,0,-0.004235833,0.01559941,0.001421719,-1.829038,0.9360979,-9.545287,0,0,30.22758,1,1,1000,1000
50611,25:41.7,IMU,92845347,0,-0.005103826,0.02870152,0.001607533,-1.833551,0.9386432,-9.543078,0,0,30.22955,1,1,1000,1000
50663,25:41.7,IMU,92885331,0,-0.007862054,0.04530461,0.001912345,-1.835784,0.9409031,-9.531479,0,0,30.23151,1,1,1000,1000
50715,25:41.7,IMU,92925315,0,-0.007067876,0.05848122,0.002322169,-1.840161,0.9434935,-9.527729,0,0,30.23348,1,1,1000,1000
50815,25:41.8,IMU,92965299,0,-0.005710582,0.07041301,0.002742219,-1.843557,0.9460129,-9.508129,0,0,30.23545,1,1,1000,1000
50869,25:41.8,IMU,93005283,0,-0.005268976,0.07559635,0.003094614,-1.846756,0.9493387,-9.508595,0,0,30.23742,1,1,1000,1000
50969,25:41.9,IMU,93045267,0,-0.00710238,0.08204589,0.003593301,-1.850707,0.9506058,-9.487628,0,0,30.23939,1,1,1000,1000
51020,25:41.9,IMU,93085251,0,-0.01029109,0.09075461,0.004192497,-1.853555,0.9511058,-9.476883,0,0,30.24136,1,1,1000,1000
51072,25:41.9,IMU,93125235,0,-0.009250172,0.09512432,0.004719289,-1.85715,0.9547213,-9.473995,0,0,30.24332,1,1,1000,1000
51171,25:42.0,IMU,93165219,0,-0.0119788,0.09511919,0.005263075,-1.859098,0.9566983,-9.45108,0,0,30.24524,1,1,1000,1000
51225,25:42.0,IMU,93205203,0,-0.007519834,0.09426534,0.005566332,-1.858296,0.9583967,-9.444803,0,0,30.24721,1,1,1000,1000
51324,25:42.1,IMU,93245187,0,-0.002969557,0.09672317,0.005851134,-1.858554,0.9617115,-9.435184,0,0,30.24918,1,1,1000,1000
51375,25:42.1,IMU,93285171,0,0.008456321,0.1009836,0.006171617,-1.857363,0.9644859,-9.421412,0,0,30.25114,1,1,1000,1000
51427,25:42.1,IMU,93325155,0,0.02027301,0.1029283,0.006711351,-1.854842,0.9691641,-9.410706,0,0,30.25311,1,1,1000,1000
51526,25:42.2,IMU,93365139,0,0.03241463,0.1026641,0.007899966,-1.852441,0.9719283,-9.402617,0,0,30.25508,1,1,1000,1000
51581,25:42.2,IMU,93405123,0,0.04773232,0.1045775,0.00962122,-1.849427,0.9763603,-9.388937,0,0,30.25704,1,1,1000,1000
51682,25:42.3,IMU,93445107,0,0.06165064,0.1059315,0.01234506,-1.845643,0.9825727,-9.384348,0,0,30.25901,1,1,1000,1000
51735,25:42.3,IMU,93485091,0,0.07429848,0.1084287,0.01603083,-1.839663,0.9875639,-9.373399,0,0,30.26097,1,1,1000,1000
51787,25:42.3,IMU,93525075,0,0.08455817,0.1097051,0.02099368,-1.833112,0.9942294,-9.364691,0,0,30.26294,1,1,1000,1000
51888,25:42.4,IMU,93565059,0,0.09420308,0.1095096,0.0268955,-1.825152,0.9992189,-9.356213,0,0,30.26495,1,1,1000,1000
51942,25:42.4,IMU,93605043,0,0.1005624,0.1127051,0.0338411,-1.817432,1.00459,-9.347805,0,0,30.26691,1,1,1000,1000
52040,25:42.5,IMU,93645027,0,0.1069439,0.1134838,0.04152467,-1.805334,1.009593,-9.33484,0,0,30.26888,1,1,1000,1000
52092,25:42.5,IMU,93685011,0,0.1091966,0.1153026,0.05022626,-1.794875,1.016516,-9.33392,0,0,30.27084,1,1,1000,1000
52144,25:42.5,IMU,93724995,0,0.1119119,0.1161605,0.05964456,-1.781703,1.020788,-9.328144,0,0,30.27276,1,1,1000,1000
52243,25:42.6,IMU,93764979,0,0.113613,0.1172176,0.06977036,-1.766673,1.02613,-9.321717,0,0,30.27472,1,1,1000,1000
52298,25:42.6,IMU,93804963,0,0.1155667,0.1178082,0.08031434,-1.751938,1.033029,-9.31389,0,0,30.27669,1,1,1000,1000
52396,25:42.7,IMU,93844947,0,0.1157601,0.1199551,0.09141979,-1.733801,1.037981,-9.309809,0,0,30.27865,1,1,1000,1000
52449,25:42.7,IMU,93884931,0,0.1151637,0.1232512,0.1028721,-1.71582,1.041323,-9.302786,0,0,30.28061,1,1,1000,1000
52501,25:42.7,IMU,93924915,0,0.115621,0.12507,0.1145557,-1.697182,1.049211,-9.298534,0,0,30.28257,1,1,1000,1000
52601,25:42.8,IMU,93964899,0,0.1164648,0.1258253,0.1265329,-1.674556,1.053362,-9.298395,0,0,30.28454,1,1,1000,1000
52656,25:42.8,IMU,94004883,0,0.1173683,0.1256368,0.1388009,-1.653324,1.058482,-9.29596,0,0,30.2865,1,1,1000,1000
52756,25:42.9,IMU,94044867,0,0.1186782,0.1278633,0.1513326,-1.629628,1.062779,-9.290093,0,0,30.28846,1,1,1000,1000
52807,25:42.9,IMU,94084851,0,0.1199222,0.1314658,0.1643009,-1.603058,1.067923,-9.289886,0,0,30.29042,1,1,1000,1000
52859,25:42.9,IMU,94124835,0,0.1231847,0.1344305,0.1774162,-1.577229,1.07384,-9.28926,0,0,30.29238,1,1,1000,1000
52958,25:43.0,IMU,94164819,0,0.1252947,0.1361595,0.1909871,-1.54843,1.078145,-9.286587,0,0,30.29434,1,1,1000,1000
53012,25:43.0,IMU,94204803,0,0.1280138,0.1362999,0.2046156,-1.519861,1.083434,-9.279663,0,0,30.2963,1,1,1000,1000
53110,25:43.1,IMU,94244787,0,0.1295713,0.1384444,0.2190371,-1.489419,1.087587,-9.292312,0,0,30.29826,1,1,1000,1000
53161,25:43.1,IMU,94284771,0,0.1320256,0.1420397,0.2339834,-1.458183,1.091317,-9.280214,0,0,30.30022,1,1,1000,1000
53213,25:43.1,IMU,94324755,0,0.1381378,0.1441513,0.2493757,-1.42473,1.094265,-9.289758,0,0,30.30218,1,1,1000,1000
53312,25:43.2,IMU,94364739,0,0.1395048,0.1447319,0.2653859,-1.389404,1.100894,-9.285488,0,0,30.30414,1,1,1000,1000
53367,25:43.2,IMU,94404723,0,0.1413462,0.1443809,0.2823323,-1.354181,1.103509,-9.289003,0,0,30.3061,1,1,1000,1000
53467,25:43.3,IMU,94444707,0,0.1481046,0.1426421,0.2997695,-1.315685,1.105459,-9.289489,0,0,30.30806,1,1,1000,1000
53521,25:43.3,IMU,94484691,0,0.1493368,0.1460566,0.3182898,-1.278453,1.110084,-9.29739,0,0,30.31002,1,1,1000,1000
53573,25:43.3,IMU,94524675,0,0.1540175,0.1483868,0.3376454,-1.238434,1.11235,-9.294857,0,0,30.31198,1,1,1000,1000
53675,25:43.4,IMU,94564659,0,0.1568238,0.1480904,0.3579558,-1.198729,1.114506,-9.301937,0,0,30.31394,1,1,1000,1000
53729,25:43.4,IMU,94604643,0,0.1573992,0.1462627,0.3792001,-1.157972,1.114846,-9.307303,0,0,30.3159,1,1,1000,1000
53827,25:43.5,IMU,94644627,0,0.1637017,0.1465435,0.4016076,-1.114012,1.116817,-9.307657,0,0,30.31785,1,1,1000,1000
53879,25:43.5,IMU,94684611,0,0.1689845,0.1479612,0.425115,-1.069691,1.117446,-9.312967,0,0,30.31981,1,1,1000,1000
53931,25:43.5,IMU,94724595,0,0.172322,0.147379,0.4497251,-1.026374,1.115949,-9.318387,0,0,30.32177,1,1,1000,1000
54030,25:43.6,IMU,94764579,0,0.1768613,0.1451224,0.4754786,-0.9798749,1.114252,-9.32368,0,0,30.32372,1,1,1000,1000
54085,25:43.6,IMU,94805396,0,0.1802825,0.1430569,0.5033203,-0.9318154,1.113094,-9.328854,0,0,30.32573,1,1,1000,1000
54183,25:43.7,IMU,94845380,0,0.1845665,0.1404524,0.531651,-0.8846402,1.108384,-9.333045,0,0,30.32769,1,1,1000,1000
54237,25:43.7,IMU,94885364,0,0.1897442,0.1376014,0.5610673,-0.8366746,1.10459,-9.34041,0,0,30.32964,1,1,1000,1000
54289,25:43.7,IMU,94925348,0,0.1940422,0.1298067,0.5916544,-0.7882068,1.098431,-9.347939,0,0,30.3316,1,1,1000,1000
54388,25:43.8,IMU,94965332,0,0.1966034,0.1171997,0.6234268,-0.7388002,1.092363,-9.358832,0,0,30.33356,1,1,1000,1000
54443,25:43.8,IMU,95005316,0,0.1967725,0.09994222,0.656063,-0.6895908,1.082788,-9.369114,0,0,30.33551,1,1,1000,1000
54543,25:43.9,IMU,95045300,0,0.19555,0.08352704,0.68972,-0.6415148,1.071643,-9.383419,0,0,30.33747,1,1,1000,1000
54594,25:43.9,IMU,95085284,0,0.1939206,0.06554484,0.7238109,-0.5915577,1.059526,-9.398977,0,0,30.33942,1,1,1000,1000
54646,25:43.9,IMU,95125268,0,0.1912151,0.04651359,0.757943,-0.5433325,1.046046,-9.411375,0,0,30.34138,1,1,1000,1000
54745,25:44.0,IMU,95165252,0,0.1874105,0.02699943,0.7916483,-0.4976158,1.029404,-9.435989,0,0,30.34333,1,1,1000,1000
54799,25:44.0,IMU,95205236,0,0.1816625,0.009002967,0.8243887,-0.4508353,1.010652,-9.445959,0,0,30.34528,1,1,1000,1000
54899,25:44.1,IMU,95245220,0,0.1796921,-0.01279477,0.855074,-0.4067464,0.9922899,-9.46443,0,0,30.34719,1,1,1000,1000
54950,25:44.1,IMU,95285204,0,0.1748583,-0.03069179,0.8846286,-0.365787,0.96983,-9.485104,0,0,30.34914,1,1,1000,1000
55002,25:44.1,IMU,95325188,0,0.1608583,-0.05025141,0.9113199,-0.3250031,0.9456375,-9.50292,0,0,30.3511,1,1,1000,1000
55101,25:44.2,IMU,95365172,0,0.1502867,-0.07218798,0.934847,-0.2871522,0.9184822,-9.527231,0,0,30.35305,1,1,1000,1000
55159,25:44.2,IMU,95405156,0,0.1403677,-0.09442858,0.9543992,-0.2517012,0.8917534,-9.548292,0,0,30.355,1,1,1000,1000
55259,25:44.3,IMU,95445140,0,0.1255776,-0.1125259,0.9695108,-0.2181777,0.8611329,-9.576586,0,0,30.35695,1,1,1000,1000
55312,25:44.3,IMU,95485124,0,0.1136848,-0.1264732,0.9798073,-0.1880839,0.8304214,-9.598018,0,0,30.35891,1,1,1000,1000
55365,25:44.3,IMU,95525108,0,0.1021353,-0.1398607,0.984808,-0.1618213,0.7975525,-9.623941,0,0,30.36086,1,1,1000,1000
55466,25:44.4,IMU,95565092,0,0.09034722,-0.1508223,0.9843396,-0.1358562,0.7643317,-9.646352,0,0,30.36281,1,1,1000,1000
55520,25:44.4,IMU,95605076,0,0.078889,-0.1596948,0.9782901,-0.1151207,0.7290161,-9.671436,0,0,30.36476,1,1,1000,1000
55618,25:44.5,IMU,95645060,0,0.07015806,-0.1668478,0.9666998,-0.09829427,0.6953201,-9.693954,0,0,30.36676,1,1,1000,1000
55670,25:44.5,IMU,95685044,0,0.06119465,-0.1677883,0.949658,-0.0845675,0.6617479,-9.718425,0,0,30.36871,1,1,1000,1000
55722,25:44.5,IMU,95725028,0,0.05387045,-0.1723014,0.9273467,-0.07367047,0.6269198,-9.741875,0,0,30.37066,1,1,1000,1000
55821,25:44.6,IMU,95765012,0,0.04493698,-0.1750686,0.900367,-0.0642148,0.5933306,-9.766205,0,0,30.37261,1,1,1000,1000
55875,25:44.6,IMU,95804996,0,0.03471831,-0.1754551,0.8690658,-0.05916214,0.562199,-9.789455,0,0,30.37452,1,1,1000,1000
55974,25:44.7,IMU,95844980,0,0.02461943,-0.1704714,0.8343489,-0.05664514,0.5287894,-9.814201,0,0,30.37646,1,1,1000,1000
56026,25:44.7,IMU,95884964,0,0.01645402,-0.1600332,0.7967299,-0.05574128,0.4984576,-9.840851,0,0,30.37841,1,1,1000,1000
56079,25:44.7,IMU,95924948,0,0.006613432,-0.147302,0.756527,-0.05923737,0.4697416,-9.861399,0,0,30.38036,1,1,1000,1000
56179,25:44.8,IMU,95964932,0,-0.004240577,-0.13219,0.7145255,-0.065465,0.4410069,-9.878954,0,0,30.38231,1,1,1000,1000
56234,25:44.8,IMU,96004916,0,-0.01481316,-0.1189162,0.6714716,-0.07395752,0.4160282,-9.900823,0,0,30.38426,1,1,1000,1000
56334,25:44.9,IMU,96044900,0,-0.0212356,-0.1062436,0.6279525,-0.08351478,0.3902798,-9.916994,0,0,30.38621,1,1,1000,1000
56385,25:44.9,IMU,96084884,0,-0.02418634,-0.09502538,0.5844672,-0.09510666,0.3675535,-9.932981,0,0,30.38816,1,1,1000,1000
56437,25:44.9,IMU,96124868,0,-0.02788114,-0.08706394,0.5418805,-0.1084159,0.3458124,-9.945242,0,0,30.39011,1,1,1000,1000
56536,25:45.0,IMU,96164852,0,-0.03506098,-0.08038937,0.5007555,-0.124995,0.3258547,-9.952431,0,0,30.39206,1,1,1000,1000
56590,25:45.0,IMU,96204836,0,-0.03810891,-0.07619601,0.4615303,-0.1427349,0.3061277,-9.972927,0,0,30.394,1,1,1000,1000
56688,25:45.1,IMU,96244820,0,-0.04156341,-0.07237617,0.424353,-0.1615954,0.2876402,-9.976578,0,0,30.39595,1,1,1000,1000
56739,25:45.1,IMU,96284804,0,-0.04463092,-0.06864344,0.3896939,-0.1813287,0.270968,-9.988781,0,0,30.3979,1,1,1000,1000
56791,25:45.1,IMU,96324788,0,-0.04491295,-0.06549007,0.3573672,-0.2010052,0.2561385,-9.999075,0,0,30.39984,1,1,1000,1000
56890,25:45.2,IMU,96364772,0,-0.05001829,-0.06366223,0.3277187,-0.2234835,0.2411253,-10.0105,0,0,30.40179,1,1,1000,1000
56945,25:45.2,IMU,96404756,0,-0.05150692,-0.06465918,0.300714,-0.2479475,0.2272921,-10.02006,0,0,30.40374,1,1,1000,1000
57045,25:45.3,IMU,96444740,0,-0.05418054,-0.06340903,0.2761787,-0.2733563,0.214348,-10.02367,0,0,30.40568,1,1,1000,1000
57098,25:45.3,IMU,96484724,0,-0.05588209,-0.06298268,0.2537718,-0.2986262,0.2026246,-10.03409,0,0,30.40763,1,1,1000,1000
57151,25:45.3,IMU,96524708,0,-0.05710567,-0.06659829,0.2337118,-0.3246725,0.1911405,-10.04405,0,0,30.40957,1,1,1000,1000
57253,25:45.4,IMU,96564692,0,-0.05947305,-0.06526104,0.2157162,-0.3520698,0.1796372,-10.04897,0,0,30.41152,1,1,1000,1000
57307,25:45.4,IMU,96604676,0,-0.06133747,-0.06482373,0.1996396,-0.380045,0.1699015,-10.06283,0,0,30.41346,1,1,1000,1000
57407,25:45.5,IMU,96644660,0,-0.06152,-0.0600663,0.1849046,-0.4098031,0.1604466,-10.06911,0,0,30.41541,1,1,1000,1000
57459,25:45.5,IMU,96684644,0,-0.06338818,-0.06153219,0.171706,-0.4380507,0.1504283,-10.07855,0,0,30.41735,1,1,1000,1000
57511,25:45.5,IMU,96724628,0,-0.06613068,-0.06034928,0.1596724,-0.4688956,0.1439075,-10.08312,0,0,30.4193,1,1,1000,1000
57610,25:45.6,IMU,96764612,0,-0.06481063,-0.05959775,0.1487155,-0.4985745,0.135992,-10.09605,0,0,30.42124,1,1,1000,1000
57664,25:45.6,IMU,96804596,0,-0.07180844,-0.06042316,0.1384562,-0.5317883,0.1284779,-10.10506,0,0,30.42318,1,1,1000,1000
57763,25:45.7,IMU,96844580,0,-0.07005589,-0.06324236,0.128843,-0.5635664,0.1216399,-10.10323,0,0,30.42513,1,1,1000,1000
57814,25:45.7,IMU,96885397,0,-0.07388993,-0.0591786,0.1197585,-0.598012,0.1135504,-10.11065,0,0,30.42712,1,1,1000,1000
57867,25:45.7,IMU,96925381,0,-0.07251313,-0.05663339,0.1114414,-0.6308468,0.1099244,-10.12032,0,0,30.42906,1,1,1000,1000
57966,25:45.8,IMU,96965365,0,-0.07522476,-0.06129812,0.1033752,-0.6638365,0.1034529,-10.12951,0,0,30.43101,1,1,1000,1000
58020,25:45.8,IMU,97005349,0,-0.07625666,-0.06287584,0.09582536,-0.6974871,0.09833561,-10.12959,0,0,30.43295,1,1,1000,1000
58121,25:45.9,IMU,97045333,0,-0.07715032,-0.06379282,0.08831423,-0.7319095,0.09360791,-10.14505,0,0,30.43489,1,1,1000,1000
58172,25:45.9,IMU,97085317,0,-0.07707468,-0.06580161,0.08153903,-0.7678456,0.0888394,-10.15328,0,0,30.43683,1,1,1000,1000
58224,25:45.9,IMU,97125301,0,-0.07641694,-0.0683719,0.07471032,-0.8016908,0.08524989,-10.15757,0,0,30.43877,1,1,1000,1000
58323,25:46.0,IMU,97165285,0,-0.08165315,-0.0700002,0.0682368,-0.8375014,0.0819258,-10.16558,0,0,30.44072,1,1,1000,1000
58377,25:46.0,IMU,97205269,0,-0.08311228,-0.07152583,0.06184822,-0.8736862,0.07926112,-10.16976,0,0,30.44266,1,1,1000,1000
58476,25:46.1,IMU,97245253,0,-0.08505312,-0.07306041,0.05574855,-0.91014,0.0742809,-10.18446,0,0,30.4446,1,1,1000,1000
58527,25:46.1,IMU,97285237,0,-0.08122841,-0.07266919,0.04982892,-0.9473363,0.07231786,-10.19424,0,0,30.44654,1,1,1000,1000
58579,25:46.1,IMU,97325221,0,-0.08296333,-0.07145819,0.04430033,-0.9828504,0.06954351,-10.19058,0,0,30.44843,1,1,1000,1000
58678,25:46.2,IMU,97365205,0,-0.08247284,-0.06477446,0.03851547,-1.019534,0.06719936,-10.20938,0,0,30.45037,1,1,1000,1000
58732,25:46.2,IMU,97405189,0,-0.0853076,-0.05065231,0.03298744,-1.057289,0.06443271,-10.21425,0,0,30.45231,1,1,1000,1000
58833,25:46.3,IMU,97445173,0,-0.07936404,-0.03709177,0.02736221,-1.096762,0.0636221,-10.21166,0,0,30.45425,1,1,1000,1000
58886,25:46.3,IMU,97485157,0,-0.07145242,-0.02328748,0.02200869,-1.134305,0.06165294,-10.21683,0,0,30.45619,1,1,1000,1000
58938,25:46.3,IMU,97525141,0,-0.06203635,-0.00554862,0.01679934,-1.174628,0.05980003,-10.20824,0,0,30.45813,1,1,1000,1000
59041,25:46.4,IMU,97565125,0,-0.05024425,0.004256233,0.0120857,-1.213146,0.05960944,-10.19576,0,0,30.46007,1,1,1000,1000
59095,25:46.4,IMU,97605109,0,-0.0356567,0.0106309,0.007755399,-1.252024,0.05785133,-10.18643,0,0,30.46201,1,1,1000,1000
59193,25:46.5,IMU,97645093,0,-0.02183522,0.01667944,0.003710191,-1.289634,0.05990009,-10.17277,0,0,30.46394,1,1,1000,1000
59245,25:46.5,IMU,97685077,0,-0.01022397,0.02133036,0.000184769,-1.328712,0.05844998,-10.15489,0,0,30.46588,1,1,1000,1000
59297,25:46.5,IMU,97725061,0,-0.003533214,0.02261176,-0.002364519,-1.365526,0.05872932,-10.13239,0,0,30.46787,1,1,1000,1000
59396,25:46.6,IMU,97765045,0,0.000951595,0.03099789,-0.004605886,-1.403322,0.05914063,-10.12236,0,0,30.4698,1,1,1000,1000
59450,25:46.6,IMU,97805029,0,0.004878346,0.02864903,-0.006226882,-1.44006,0.05915692,-10.09703,0,0,30.47174,1,1,1000,1000
59549,25:46.7,IMU,97845013,0,0.007876654,0.0248221,-0.007210845,-1.476386,0.05891251,-10.07887,0,0,30.47368,1,1,1000,1000
59601,25:46.7,IMU,97884997,0,0.009510202,0.02107457,-0.00768679,-1.510237,0.0582828,-10.05639,0,0,30.47557,1,1,1000,1000
59654,25:46.7,IMU,97924981,0,0.009485648,0.01698986,-0.007814938,-1.545389,0.05854095,-10.04066,0,0,30.4775,1,1,1000,1000
59753,25:46.8,IMU,97964965,0,0.008521947,0.01397911,-0.007582315,-1.578463,0.05744438,-10.01926,0,0,30.47944,1,1,1000,1000
59807,25:46.8,IMU,98004949,0,0.005934561,0.01231348,-0.007264771,-1.612318,0.05799995,-9.992933,0,0,30.48138,1,1,1000,1000
59908,25:46.9,IMU,98044933,0,0.005808099,0.01121285,-0.006876088,-1.644547,0.05585065,-9.983561,0,0,30.48331,1,1,1000,1000
59959,25:46.9,IMU,98084917,0,0.006360129,0.008664701,-0.006550591,-1.675566,0.05642979,-9.962406,0,0,30.48525,1,1,1000,1000
60011,25:46.9,IMU,98124901,0,0.007914592,0.008693689,-0.005928499,-1.70808,0.0565015,-9.944916,0,0,30.48718,1,1,1000,1000
60110,25:47.0,IMU,98164885,0,0.006927368,0.00600044,-0.005023606,-1.738933,0.05522402,-9.928375,0,0,30.48912,1,1,1000,1000
60165,25:47.0,IMU,98204869,0,0.005401248,0.005594096,-0.004328219,-1.768362,0.0544886,-9.915569,0,0,30.49105,1,1,1000,1000
60263,25:47.1,IMU,98244853,0,0.005505627,0.006177178,-0.003573437,-1.799642,0.05406477,-9.895912,0,0,30.49298,1,1,1000,1000
60314,25:47.1,IMU,98284837,0,0.005153113,0.009056858,-0.003094689,-1.827426,0.05416453,-9.880541,0,0,30.49492,1,1,1000,1000
60366,25:47.1,IMU,98324821,0,0.004676545,0.009913631,-0.002295395,-1.855887,0.05319413,-9.865106,0,0,30.49685,1,1,1000,1000
60465,25:47.2,IMU,98364805,0,0.004418612,0.007484615,-0.001443963,-1.885195,0.05284556,-9.851835,0,0,30.49879,1,1,1000,1000
60519,25:47.2,IMU,98404789,0,0.001192768,0.008133018,-0.000456652,-1.913513,0.05290014,-9.836048,0,0,30.50072,1,1,1000,1000
60620,25:47.3,IMU,98444773,0,-0.000519702,0.007343343,0.000292948,-1.940853,0.05209455,-9.8214,0,0,30.50266,1,1,1000,1000
60673,25:47.3,IMU,98484757,0,0.001860549,0.00847074,0.000578982,-1.966179,0.05196356,-9.803246,0,0,30.50459,1,1,1000,1000
60725,25:47.3,IMU,98524741,0,0.001402293,0.010629,0.000694751,-1.992876,0.05188313,-9.794806,0,0,30.50652,1,1,1000,1000
60828,25:47.4,IMU,98564725,0,0.001458547,0.01332411,0.00089266,-2.01982,0.05192988,-9.780112,0,0,30.50845,1,1,1000,1000
60882,25:47.4,IMU,98604709,0,0.001293373,0.006084809,0.001242716,-2.045173,0.05236091,-9.769315,0,0,30.51038,1,1,1000,1000
60980,25:47.5,IMU,98644693,0,-0.002389124,0.007888996,0.001734145,-2.070184,0.05072362,-9.760933,0,0,30.51232,1,1,1000,1000
61032,25:47.5,IMU,98684677,0,-0.002489898,0.0141602,0.002008746,-2.092342,0.05122438,-9.734185,0,0,30.51425,1,1,1000,1000
61084,25:47.5,IMU,98724661,0,-0.003218123,0.01700265,0.002023136,-2.116252,0.05072061,-9.724962,0,0,30.51618,1,1,1000,1000
61183,25:47.6,IMU,98764645,0,-0.002835172,0.01665225,0.001953474,-2.138741,0.04923199,-9.717409,0,0,30.51811,1,1,1000,1000
61237,25:47.6,IMU,98804629,0,-0.002382385,0.01578791,0.001872973,-2.161498,0.04899286,-9.708945,0,0,30.52004,1,1,1000,1000
61336,25:47.7,IMU,98844613,0,-0.002052324,0.02032272,0.001978672,-2.184393,0.04978617,-9.700541,0,0,30.52197,1,1,1000,1000
61388,25:47.7,IMU,98884597,0,-0.003565104,0.02588903,0.002067561,-2.204382,0.04848505,-9.685123,0,0,30.5239,1,1,1000,1000
61442,25:47.7,IMU,98924581,0,-0.004392116,0.02883973,0.001922046,-2.225768,0.04860478,-9.668959,0,0,30.52583,1,1,1000,1000
61542,25:47.8,IMU,98965398,0,-0.004356296,0.03226547,0.001778154,-2.247308,0.04805043,-9.661146,0,0,30.52781,1,1,1000,1000
61596,25:47.8,IMU,99005382,0,-0.00380195,0.03535717,0.001623016,-2.267519,0.04889409,-9.652792,0,0,30.52974,1,1,1000,1000
61697,25:47.9,IMU,99045366,0,-0.003427264,0.03484037,0.001747339,-2.287086,0.04798275,-9.641893,0,0,30.53167,1,1,1000,1000
61749,25:47.9,IMU,99085350,0,-0.003644269,0.03749389,0.001269378,-2.305388,0.04828397,-9.621341,0,0,30.5336,1,1,1000,1000
61801,25:47.9,IMU,99125334,0,-0.003093605,0.03605091,0.001043729,-2.323694,0.04852325,-9.618222,0,0,30.53553,1,1,1000,1000
61900,25:48.0,IMU,99165318,0,-0.002689393,0.03385933,0.001009902,-2.340822,0.04785071,-9.612108,0,0,30.53745,1,1,1000,1000
61955,25:48.0,IMU,99205302,0,-0.005236065,0.03677879,0.00123528,-2.35693,0.04771411,-9.600897,0,0,30.53938,1,1,1000,1000
62053,25:48.1,IMU,99245286,0,-0.005253839,0.04119796,0.001100251,-2.371675,0.04760274,-9.579703,0,0,30.54131,1,1,1000,1000
62104,25:48.1,IMU,99285270,0,-0.004682655,0.04363427,0.000918292,-2.389481,0.04760823,-9.581713,0,0,30.54324,1,1,1000,1000
62156,25:48.1,IMU,99325254,0,-0.004102686,0.04169987,0.000956954,-2.404901,0.04756432,-9.571939,0,0,30.54517,1,1,1000,1000
62255,25:48.2,IMU,99365238,0,-0.002054496,0.04492538,0.001064904,-2.418125,0.04767843,-9.565753,0,0,30.54709,1,1,1000,1000
62309,25:48.2,IMU,99405222,0,-0.00411987,0.04362947,0.000967732,-2.432339,0.04688712,-9.552472,0,0,30.54897,1,1,1000,1000
62410,25:48.3,IMU,99445206,0,-0.00341964,0.04168105,0.000811447,-2.445245,0.04663041,-9.548786,0,0,30.5509,1,1,1000,1000
62463,25:48.3,IMU,99485190,0,-0.002649576,0.04904737,0.00094322,-2.457927,0.04705301,-9.542958,0,0,30.55283,1,1,1000,1000
62515,25:48.3,IMU,99525174,0,-0.00327759,0.05531156,0.000895586,-2.467819,0.0467512,-9.531632,0,0,30.55475,1,1,1000,1000
62617,25:48.4,IMU,99565158,0,0.000694053,0.05762933,0.000726253,-2.481667,0.0476247,-9.527534,0,0,30.55668,1,1,1000,1000
62672,25:48.4,IMU,99605142,0,0.000384625,0.05733463,0.000729652,-2.492049,0.04797842,-9.520546,0,0,30.5586,1,1,1000,1000
62770,25:48.5,IMU,99645126,0,-0.000586722,0.06097117,0.000819516,-2.500915,0.04715498,-9.511803,0,0,30.56053,1,1,1000,1000
62822,25:48.5,IMU,99685110,0,-0.003530602,0.06489301,0.000764412,-2.510541,0.04907338,-9.502434,0,0,30.56245,1,1,1000,1000
62874,25:48.5,IMU,99725094,0,-0.002920985,0.06654129,0.000750789,-2.519555,0.04824042,-9.50778,0,0,30.56438,1,1,1000,1000
62973,25:48.6,IMU,99765078,0,-0.002516377,0.07139128,0.000663763,-2.526801,0.04847966,-9.486704,0,0,30.5663,1,1,1000,1000
63027,25:48.6,IMU,99805062,0,-0.002053413,0.07162042,0.000631663,-2.535117,0.04768692,-9.492589,0,0,30.56828,1,1,1000,1000
63126,25:48.7,IMU,99845046,0,-0.001856029,0.08004038,0.000629624,-2.543102,0.04927564,-9.492796,0,0,30.5702,1,1,1000,1000
63178,25:48.7,IMU,99885030,0,-0.002322085,0.07525652,0.000421293,-2.547258,0.04781404,-9.474819,0,0,30.57212,1,1,1000,1000
63230,25:48.7,IMU,99925014,0,-0.001899525,0.06514188,0.000405476,-2.55349,0.04799988,-9.478128,0,0,30.57405,1,1,1000,1000
63330,25:48.8,IMU,99964998,0,-0.002232098,0.04843771,0.00060343,-2.555659,0.04753718,-9.463955,0,0,30.57592,1,1,1000,1000
63384,25:48.8,IMU,100004982,0,-0.000293398,0.03092312,0.000321825,-2.557276,0.04936254,-9.463202,0,0,30.57784,1,1,1000,1000
63484,25:48.9,IMU,100044966,0,-0.00022427,0.01921738,0.000143126,-2.558709,0.04890445,-9.464233,0,0,30.57977,1,1,1000,1000
63535,25:48.9,IMU,100084950,0,-7.2e-06,0.01173972,5.59126e-05,-2.557589,0.04971457,-9.468393,0,0,30.58169,1,1,1000,1000
63588,25:48.9,IMU,100124934,0,0.000108188,0.004747123,4.736317e-05,-2.556993,0.04938554,-9.466746,0,0,30.58361,1,1,1000,1000
63687,25:49.0,IMU,100164918,0,0.000244856,-0.001078101,3.556544e-05,-2.557546,0.04870627,-9.461843,0,0,30.58554,1,1,1000,1000
63742,25:49.0,IMU,100204902,0,0.00040114,-0.008100269,0.000164918,-2.555522,0.04870992,-9.461514,0,0,30.58746,1,1,1000,1000
63840,25:49.1,IMU,100244886,0,0.000468235,-0.01054574,4.59955e-05,-2.554832,0.05025396,-9.461615,0,0,30.58938,1,1,1000,1000
63891,25:49.1,IMU,100284870,0,0.000520764,-0.01149269,0.000130403,-2.553082,0.05035187,-9.461078,0,0,30.5913,1,1,1000,1000
63943,25:49.1,IMU,100324854,0,0.000590989,-0.01402635,0.000166749,-2.55442,0.05056952,-9.464405,0,0,30.59322,1,1,1000,1000
64042,25:49.2,IMU,100364838,0,-0.002044411,-0.01513113,0.000175397,-2.552274,0.0514787,-9.466107,0,0,30.59514,1,1,1000,1000
64096,25:49.2,IMU,100404822,0,-0.004337835,-0.0155486,7.724208e-05,-2.551471,0.05076793,-9.465244,0,0,30.59706,1,1,1000,1000
64196,25:49.3,IMU,100444806,0,-0.005715622,-0.0112288,-0.000261523,-2.552446,0.05223265,-9.47238,0,0,30.59898,1,1,1000,1000
64250,25:49.3,IMU,100484790,0,-0.005366085,-0.009296667,-0.000373864,-2.551832,0.05092579,-9.477887,0,0,30.6009,1,1,1000,1000
64302,25:49.3,IMU,100524774,0,-0.004791081,-0.008136742,-0.000555741,-2.551734,0.05146347,-9.476024,0,0,30.60282,1,1,1000,1000
64404,25:49.4,IMU,100564758,0,-0.003641211,-0.005303538,-0.000736201,-2.553678,0.05234295,-9.477293,0,0,30.60474,1,1,1000,1000
64459,25:49.4,IMU,100604742,0,-0.002426233,-0.004729484,-0.000790271,-2.553728,0.05138445,-9.477774,0,0,30.60666,1,1,1000,1000
64557,25:49.5,IMU,100644726,0,-0.001021929,-0.004157073,-0.000841887,-2.553336,0.05160782,-9.477813,0,0,30.60858,1,1,1000,1000
64609,25:49.5,IMU,100684710,0,-0.001878335,-0.008203936,-0.000548111,-2.554171,0.05205228,-9.481041,0,0,30.6105,1,1,1000,1000
64661,25:49.5,IMU,100724694,0,-0.001540076,-0.004532536,-0.000263874,-2.555431,0.05195006,-9.476007,0,0,30.61242,1,1,1000,1000
64760,25:49.6,IMU,100764678,0,-0.001298041,-0.001893276,-0.000167059,-2.555346,0.05401389,-9.475806,0,0,30.61433,1,1,1000,1000
64814,25:49.6,IMU,100804662,0,-0.000937186,-0.000591486,3.837137e-05,-2.556806,0.05379143,-9.478433,0,0,30.61625,1,1,1000,1000
64913,25:49.7,IMU,100844646,0,-0.000714339,0.005238241,-1.54e-05,-2.557591,0.05229113,-9.480157,0,0,30.61817,1,1,1000,1000
64965,25:49.7,IMU,100884630,0,-0.00050117,0.007453538,1.922069e-05,-2.55775,0.05302566,-9.482389,0,0,30.62009,1,1,1000,1000
65017,25:49.7,IMU,100924614,0,-0.00025868,0.007707401,0.000106328,-2.559703,0.05410769,-9.477541,0,0,30.62201,1,1,1000,1000
65117,25:49.8,IMU,100964598,0,-0.000235443,0.008978451,0.000226221,-2.56087,0.05526417,-9.479088,0,0,30.62392,1,1,1000,1000
65171,25:49.8,IMU,101004582,0,1.43522e-05,0.008166432,0.000271446,-2.561545,0.05479681,-9.480592,0,0,30.62584,1,1,1000,1000
65271,25:49.9,IMU,101045399,0,0.000212068,0.01720803,0.000374343,-2.562443,0.05507154,-9.482049,0,0,30.6278,1,1,1000,1000
65322,25:49.9,IMU,101085383,0,0.001741044,0.02146471,0.000323538,-2.564323,0.05504509,-9.479584,0,0,30.62972,1,1,1000,1000
65375,25:49.9,IMU,101125367,0,0.003035815,0.01925284,0.000333711,-2.565639,0.05563022,-9.484852,0,0,30.63164,1,1,1000,1000
65474,25:50.0,IMU,101165351,0,0.003265062,0.01749679,0.000179265,-2.565775,0.05523674,-9.478223,0,0,30.63355,1,1,1000,1000
65529,25:50.0,IMU,101205335,0,0.002806478,0.01580441,-0.000126541,-2.5674,0.05594837,-9.480576,0,0,30.63547,1,1,1000,1000
65627,25:50.1,IMU,101245319,0,0.002435275,0.01437108,-0.000433329,-2.56792,0.05817623,-9.479478,0,0,30.63738,1,1,1000,1000
65678,25:50.1,IMU,101285303,0,0.001232959,0.01306873,-0.000626333,-2.5674,0.05788063,-9.480444,0,0,30.6393,1,1,1000,1000
65730,25:50.1,IMU,101325287,0,0.001286087,0.01108613,-0.000733304,-2.567053,0.05883631,-9.472116,0,0,30.64121,1,1,1000,1000
65829,25:50.2,IMU,101365271,0,0.000817486,0.01008501,-0.000621661,-2.567825,0.05802486,-9.474216,0,0,30.64312,1,1,1000,1000
65883,25:50.2,IMU,101405255,0,0.0009111,0.008949921,-0.000615167,-2.567593,0.05705465,-9.476456,0,0,30.64504,1,1,1000,1000
65983,25:50.3,IMU,101445239,0,0.001461966,0.01004151,-0.000486351,-2.566013,0.05812775,-9.47558,0,0,30.64695,1,1,1000,1000
66037,25:50.3,IMU,101485223,0,0.003041352,0.01245878,-0.000458923,-2.565883,0.05856503,-9.480518,0,0,30.64882,1,1,1000,1000
66089,25:50.3,IMU,101525207,0,0.003443998,0.008206692,-0.000390286,-2.564769,0.05861479,-9.477117,0,0,30.65073,1,1,1000,1000
66191,25:50.4,IMU,101565191,0,0.003580115,0.008039633,-0.000319377,-2.565511,0.0595543,-9.47751,0,0,30.65265,1,1,1000,1000
66245,25:50.4,IMU,101605175,0,0.003889309,0.007757123,-0.000249112,-2.56448,0.06101438,-9.47872,0,0,30.65456,1,1,1000,1000
66346,25:50.5,IMU,101645159,0,0.002431765,0.01018963,-9.39e-05,-2.56251,0.05994895,-9.477663,0,0,30.65647,1,1,1000,1000
66398,25:50.5,IMU,101685143,0,0.001628579,0.01182542,4.594442e-05,-2.562839,0.06017622,-9.476912,0,0,30.65838,1,1,1000,1000
66450,25:50.5,IMU,101725127,0,0.000450802,0.01326122,5.613673e-05,-2.562986,0.06120246,-9.478888,0,0,30.6603,1,1,1000,1000
66549,25:50.6,IMU,101765111,0,0.003050973,0.01384373,2.661687e-05,-2.560468,0.06064543,-9.473439,0,0,30.66221,1,1,1000,1000
66603,25:50.6,IMU,101805095,0,0.002771821,0.01195583,0.000134049,-2.559391,0.06199425,-9.474313,0,0,30.66412,1,1,1000,1000
66702,25:50.7,IMU,101845079,0,0.002655629,0.01182908,0.000270096,-2.559336,0.06056712,-9.478754,0,0,30.66603,1,1,1000,1000
66754,25:50.7,IMU,101885063,0,0.002531073,0.0126029,0.000283215,-2.558469,0.06211027,-9.480659,0,0,30.66799,1,1,1000,1000
66806,25:50.7,IMU,101925047,0,0.002379171,0.02123087,0.000136571,-2.557245,0.06255774,-9.481943,0,0,30.6699,1,1,1000,1000
66906,25:50.8,IMU,101965031,0,0.002360946,0.01862798,0.000249292,-2.556071,0.06199899,-9.481896,0,0,30.67181,1,1,1000,1000
66960,25:50.8,IMU,102005015,0,0.002266057,0.01690972,0.000279382,-2.554633,0.06263346,-9.484477,0,0,30.67372,1,1,1000,1000
67061,25:50.9,IMU,102044999,0,0.002127163,0.01442755,0.000388144,-2.554527,0.06273899,-9.486835,0,0,30.67558,1,1,1000,1000
67112,25:50.9,IMU,102084983,0,0.002063706,0.01259856,0.000504976,-2.552294,0.06309839,-9.483987,0,0,30.67749,1,1,1000,1000
67164,25:50.9,IMU,102124967,0,0.001428502,0.009244016,0.000667151,-2.55062,0.06250574,-9.485312,0,0,30.6794,1,1,1000,1000
67264,25:51.0,IMU,102164951,0,0.000708435,0.007571976,0.000544675,-2.548041,0.0621922,-9.482796,0,0,30.68131,1,1,1000,1000
67319,25:51.0,IMU,102204935,0,0.001514521,0.004271158,0.000297754,-2.54634,0.06372381,-9.482281,0,0,30.68322,1,1,1000,1000
67417,25:51.1,IMU,102244919,0,0.001614123,0.004122638,3.29131e-05,-2.542413,0.06278043,-9.48268,0,0,30.68513,1,1,1000,1000
67468,25:51.1,IMU,102284903,0,0.002157636,0.004053222,-0.000104866,-2.541378,0.06417906,-9.478104,0,0,30.68704,1,1,1000,1000
67520,25:51.1,IMU,102324887,0,0.002270848,0.004657148,6.902681e-05,-2.539112,0.0639871,-9.481529,0,0,30.68895,1,1,1000,1000
67619,25:51.2,IMU,102364871,0,0.00224507,0.005586727,0.000129717,-2.536898,0.06409376,-9.482037,0,0,30.69085,1,1,1000,1000
67673,25:51.2,IMU,102404855,0,0.002825668,0.005027217,0.000145403,-2.535568,0.06427719,-9.482441,0,0,30.69276,1,1,1000,1000
67773,25:51.3,IMU,102444839,0,0.002831344,0.005006837,0.000281121,-2.532487,0.06444228,-9.483094,0,0,30.69467,1,1,1000,1000
67828,25:51.3,IMU,102484823,0,0.002332912,0.006194847,0.00030893,-2.531527,0.06454454,-9.483248,0,0,30.69658,1,1,1000,1000
67880,25:51.3,IMU,102524807,0,0.001796167,0.007154715,0.000456543,-2.52928,0.06451868,-9.484921,0,0,30.69848,1,1,1000,1000
67982,25:51.4,IMU,102564791,0,0.001042255,0.00735059,0.000564889,-2.527933,0.06510746,-9.482708,0,0,30.70039,1,1,1000,1000
68036,25:51.4,IMU,102604775,0,0.000423908,0.006730561,0.000715297,-2.527142,0.06568158,-9.484792,0,0,30.7023,1,1,1000,1000
68134,25:51.5,IMU,102644759,0,-0.000595251,0.007852514,0.000790328,-2.523759,0.06584802,-9.486381,0,0,30.7042,1,1,1000,1000
68187,25:51.5,IMU,102684743,0,-0.000949515,0.008874473,0.00082138,-2.521741,0.06556264,-9.486515,0,0,30.70611,1,1,1000,1000
68239,25:51.5,IMU,102724727,0,-0.000381491,0.01027787,0.000789617,-2.51983,0.06593038,-9.485706,0,0,30.70802,1,1,1000,1000
68338,25:51.6,IMU,102764711,0,-0.000430236,0.001847439,0.000705945,-2.518148,0.06710555,-9.485329,0,0,30.70992,1,1,1000,1000
68392,25:51.6,IMU,102804695,0,-0.000517996,0.001211079,0.000771647,-2.515098,0.06601699,-9.489261,0,0,30.71182,1,1,1000,1000
68491,25:51.7,IMU,102844679,0,0.001186393,0.004018241,0.000737385,-2.513424,0.06592735,-9.489197,0,0,30.71373,1,1,1000,1000
68543,25:51.7,IMU,102884663,0,0.00170691,0.005491112,0.000645368,-2.511297,0.06683889,-9.491247,0,0,30.71564,1,1,1000,1000
68597,25:51.7,IMU,102924647,0,0.003012305,0.006740226,0.000698863,-2.510067,0.0668193,-9.491768,0,0,30.71754,1,1,1000,1000
68696,25:51.8,IMU,102964631,0,0.003305096,0.006369963,0.000641002,-2.508081,0.0670123,-9.490387,0,0,30.71944,1,1,1000,1000
68751,25:51.8,IMU,103004615,0,0.002390878,0.006085624,0.000609286,-2.506637,0.0680512,-9.492282,0,0,30.72135,1,1,1000,1000
68851,25:51.9,IMU,103044599,0,0.002477582,0.008565079,0.000630392,-2.505719,0.06777088,-9.49132,0,0,30.72325,1,1,1000,1000
68902,25:51.9,IMU,103084583,0,0.001951187,0.009491535,0.00065421,-2.501954,0.0675059,-9.493841,0,0,30.72515,1,1,1000,1000
68954,25:51.9,IMU,103125400,0,0.000239979,0.01531953,0.000724639,-2.501256,0.06689635,-9.493609,0,0,30.7271,1,1,1000,1000
69054,25:52.0,IMU,103165384,0,8.599047e-05,0.01599922,0.000742818,-2.498089,0.06858169,-9.495518,0,0,30.72901,1,1,1000,1000
69109,25:52.0,IMU,103205368,0,0.000276983,0.01149278,0.000679894,-2.496344,0.06725272,-9.489612,0,0,30.73091,1,1,1000,1000
69207,25:52.1,IMU,103245352,0,0.000348341,0.005415778,0.000515307,-2.49465,0.06789698,-9.489382,0,0,30.73281,1,1,1000,1000
69258,25:52.1,IMU,103285336,0,0.00044191,0.00157982,0.000455994,-2.493381,0.06814165,-9.492334,0,0,30.73471,1,1,1000,1000
69310,25:52.1,IMU,103325320,0,0.000563164,-0.002834627,0.000152158,-2.489613,0.06790496,-9.493309,0,0,30.73662,1,1,1000,1000
69409,25:52.2,IMU,103365304,0,0.001542517,-0.004300265,6.576373e-05,-2.487005,0.068,-9.492312,0,0,30.73852,1,1,1000,1000
69463,25:52.2,IMU,103405288,0,0.002530932,-0.003653187,-7.99e-06,-2.485001,0.06873251,-9.496974,0,0,30.74042,1,1,1000,1000
69563,25:52.3,IMU,103445272,0,0.001196455,-0.004746697,0.000271914,-2.482938,0.06834297,-9.496379,0,0,30.74232,1,1,1000,1000
69617,25:52.3,IMU,103485256,0,0.000607036,-0.004367352,0.000657305,-2.479759,0.06894,-9.493198,0,0,30.74422,1,1,1000,1000
69670,25:52.3,IMU,103525240,0,9.02793e-06,-0.004234953,0.001030147,-2.47739,0.0696151,-9.49707,0,0,30.74612,1,1,1000,1000
69771,25:52.4,IMU,103565224,0,0.000792115,-0.005667509,0.001117314,-2.475435,0.06933898,-9.50105,0,0,30.74798,1,1,1000,1000
69825,25:52.4,IMU,103605208,0,0.002289389,-0.009928101,0.001073441,-2.4741,0.06864712,-9.496986,0,0,30.74988,1,1,1000,1000
69923,25:52.5,IMU,103645192,0,0.002721582,-0.006657609,0.001104482,-2.471777,0.06975453,-9.498114,0,0,30.75178,1,1,1000,1000
69975,25:52.5,IMU,103685176,0,0.003356141,-0.006535075,0.001014365,-2.469474,0.06957584,-9.500526,0,0,30.75368,1,1,1000,1000
70028,25:52.5,IMU,103725160,0,0.00433325,-0.00524894,0.001026075,-2.468864,0.06912705,-9.499134,0,0,30.75558,1,1,1000,1000
70127,25:52.6,IMU,103765144,0,0.003502239,-0.00280164,0.00101832,-2.468324,0.0699174,-9.499724,0,0,30.75747,1,1,1000,1000
70181,25:52.6,IMU,103805128,0,0.002811318,-0.000184591,0.000932441,-2.466588,0.06955542,-9.50028,0,0,30.75937,1,1,1000,1000
70280,25:52.7,IMU,103845112,0,0.002059991,0.001300161,0.000959024,-2.46645,0.07144363,-9.49919,0,0,30.76127,1,1,1000,1000
70332,25:52.7,IMU,103885096,0,0.001429739,0.001900486,0.00089825,-2.464212,0.07103847,-9.502563,0,0,30.76317,1,1,1000,1000
70384,25:52.7,IMU,103925080,0,0.000848604,0.002568083,0.000848305,-2.463427,0.07107919,-9.49958,0,0,30.76507,1,1,1000,1000
70483,25:52.8,IMU,103965064,0,4.771394e-05,0.003817511,0.000901467,-2.461946,0.07052472,-9.499763,0,0,30.76701,1,1,1000,1000
70538,25:52.8,IMU,104005048,0,6.237391e-05,0.0105869,0.000902158,-2.461115,0.07101931,-9.500025,0,0,30.76891,1,1,1000,1000
70638,25:52.9,IMU,104045032,0,-3.76e-05,0.009505635,0.000900069,-2.460916,0.07153827,-9.500162,0,0,30.77081,1,1,1000,1000
70689,25:52.9,IMU,104085016,0,-0.000222967,0.005910258,0.000906652,-2.460485,0.07178479,-9.497827,0,0,30.77271,1,1,1000,1000
70741,25:52.9,IMU,104125000,0,0.00014205,0.003957327,0.000864263,-2.459922,0.07075747,-9.498263,0,0,30.7746,1,1,1000,1000
70840,25:53.0,IMU,104164984,0,0.000772374,0.004074602,0.000841021,-2.458459,0.07045532,-9.500158,0,0,30.77645,1,1,1000,1000
70896,25:53.0,IMU,104204968,0,0.002111228,0.005280292,0.000889314,-2.456163,0.07059716,-9.504967,0,0,30.77835,1,1,1000,1000
70994,25:53.1,IMU,104244952,0,0.003163745,0.00669533,0.00076695,-2.456355,0.07156453,-9.498753,0,0,30.78024,1,1,1000,1000
71045,25:53.1,IMU,104284936,0,-0.000388017,0.00597256,0.000702692,-2.455215,0.07215789,-9.498291,0,0,30.78214,1,1,1000,1000
71097,25:53.1,IMU,104324920,0,-0.000108296,0.006135285,0.00053265,-2.453277,0.07068071,-9.495704,0,0,30.78403,1,1,1000,1000
71196,25:53.2,IMU,104364904,0,0.001505337,0.006878128,0.000333274,-2.453624,0.07241477,-9.502958,0,0,30.78593,1,1,1000,1000
71250,25:53.2,IMU,104404888,0,0.002600947,0.007073877,0.000412742,-2.453221,0.0700293,-9.505136,0,0,30.78783,1,1,1000,1000
71350,25:53.3,IMU,104444872,0,0.002905715,0.00593839,0.000474906,-2.450995,0.0718796,-9.503728,0,0,30.78972,1,1,1000,1000
71404,25:53.3,IMU,104484856,0,0.002634176,0.004810531,0.000706061,-2.450114,0.07243735,-9.503939,0,0,30.79161,1,1,1000,1000
71457,25:53.3,IMU,104524840,0,0.002678438,0.006927228,0.00094485,-2.448145,0.07182087,-9.501405,0,0,30.79351,1,1,1000,1000
71558,25:53.4,IMU,104564824,0,0.003019832,0.006419595,0.001206872,-2.447343,0.07275282,-9.501308,0,0,30.7954,1,1,1000,1000
71612,25:53.4,IMU,104604808,0,0.003578735,0.00753214,0.001306216,-2.448314,0.07296099,-9.509343,0,0,30.7973,1,1,1000,1000
71710,25:53.5,IMU,104644792,0,0.002774379,0.007223165,0.00136516,-2.447432,0.07232166,-9.509215,0,0,30.79919,1,1,1000,1000
