Unnamed: 0,Timestamp,Unnamed: 2,TimeUS,I,GyrX,GyrY,GyrZ,AccX,AccY,AccZ,EG,EA,T,GH,AH,GHz,AHz
223557,27:18.1,IMU,189325073,0,0.002177421,-0.001163642,0.001879402,-4.673293,1.196911,-8.609131,0,0,34.29156,1,1,999,999
223656,27:18.2,IMU,189365057,0,0.001291552,-0.001043668,0.001989957,-4.674275,1.195367,-8.609292,0,0,34.29302,1,1,999,999
223711,27:18.2,IMU,189405041,0,0.001693596,-0.000389739,0.002030808,-4.677367,1.195095,-8.610761,0,0,34.29445,1,1,999,999
223811,27:18.3,IMU,189445025,0,0.002133213,0.002501706,0.002022205,-4.679007,1.194846,-8.613205,0,0,34.29588,1,1,999,999
223865,27:18.3,IMU,189485009,0,0.003923533,0.002382582,0.001849126,-4.680442,1.194247,-8.615695,0,0,34.29731,1,1,999,999
223917,27:18.3,IMU,189524993,0,0.003739698,0.002361288,0.001856309,-4.682325,1.194767,-8.61211,0,0,34.2987,1,1,999,999
224018,27:18.4,IMU,189564977,0,0.003552506,0.002471888,0.002006905,-4.683999,1.19428,-8.609145,0,0,34.30013,1,1,999,999
224073,27:18.4,IMU,189604961,0,0.003464443,0.002544773,0.002082595,-4.68701,1.195187,-8.607686,0,0,34.30155,1,1,999,999
224172,27:18.5,IMU,189644945,0,0.003382903,0.002477846,0.002123836,-4.687726,1.193038,-8.604796,0,0,34.30298,1,1,999,999
224223,27:18.5,IMU,189684929,0,0.003294004,0.001647559,0.002106758,-4.688179,1.192922,-8.603531,0,0,34.3044,1,1,999,999
224276,27:18.5,IMU,189724913,0,0.003236052,0.002300743,0.001975687,-4.692119,1.191386,-8.607329,0,0,34.30583,1,1,999,999
224375,27:18.6,IMU,189764897,0,0.004837123,0.000217395,0.001544816,-4.692575,1.192271,-8.608812,0,0,34.30725,1,1,999,999
224429,27:18.6,IMU,189804881,0,0.005887338,-0.000479407,0.001154951,-4.694366,1.19106,-8.61129,0,0,34.30868,1,1,999,999
224527,27:18.7,IMU,189844865,0,0.00666864,0.001007037,0.000799107,-4.696393,1.192371,-8.611819,0,0,34.3101,1,1,999,999
224579,27:18.7,IMU,189884849,0,0.006840986,0.001178614,0.000487286,-4.696531,1.191849,-8.612036,0,0,34.31153,1,1,999,999
224632,27:18.7,IMU,189924833,0,0.005617339,0.001354226,0.000292765,-4.697843,1.191737,-8.611991,0,0,34.31295,1,1,999,999
224731,27:18.8,IMU,189964817,0,0.006181733,0.00100521,0.000127055,-4.699548,1.19005,-8.606491,0,0,34.31438,1,1,999,999
224785,27:18.8,IMU,190004801,0,0.005152507,0.000862512,9.741777e-05,-4.701619,1.189431,-8.606419,0,0,34.3158,1,1,999,999
224886,27:18.9,IMU,190044785,0,0.004312359,0.001129206,0.000148004,-4.703619,1.189861,-8.611198,0,0,34.31723,1,1,1000,1000
224937,27:18.9,IMU,190084769,0,0.005888081,0.001336501,0.000303303,-4.703961,1.189519,-8.607897,0,0,34.31865,1,1,1000,1000
224990,27:18.9,IMU,190124753,0,0.005502456,0.001435219,0.000413533,-4.704873,1.187888,-8.606392,0,0,34.32008,1,1,1000,1000
225089,27:19.0,IMU,190164737,0,0.005187737,0.001658198,0.00060957,-4.706097,1.186708,-8.60352,0,0,34.3215,1,1,1000,1000
225143,27:19.0,IMU,190204721,0,0.004914336,0.001722403,0.000812635,-4.706874,1.185652,-8.601028,0,0,34.32293,1,1,1000,1000
225241,27:19.1,IMU,190244705,0,0.00463377,0.001867034,0.001033396,-4.709284,1.186705,-8.597624,0,0,34.32435,1,1,1000,1000
225292,27:19.1,IMU,190284689,0,0.004451434,0.002017784,0.001146278,-4.710704,1.185593,-8.596623,0,0,34.32577,1,1,1000,1000
225345,27:19.1,IMU,190324673,0,0.004202503,0.002094246,0.001210748,-4.711202,1.184255,-8.593457,0,0,34.32719,1,1,1000,1000
225444,27:19.2,IMU,190364657,0,0.004036604,0.002105178,0.001415704,-4.711752,1.183977,-8.592124,0,0,34.32862,1,1,1000,1000
225499,27:19.2,IMU,190404641,0,0.003857913,0.002229682,0.001403202,-4.713094,1.183502,-8.589424,0,0,34.33004,1,1,1000,1000
225599,27:19.3,IMU,190444625,0,0.004059731,0.002316395,0.001751313,-4.71565,1.183792,-8.593122,0,0,34.33146,1,1,1000,1000
225653,27:19.3,IMU,190484609,0,0.004929088,0.002348063,0.002123158,-4.71638,1.181646,-8.593344,0,0,34.33289,1,1,1000,1000
225705,27:19.3,IMU,190524593,0,0.00626741,0.001009303,0.002302876,-4.717113,1.182374,-8.597736,0,0,34.33431,1,1,1000,1000
225806,27:19.4,IMU,190565410,0,0.006396557,-9.14e-05,0.002313517,-4.719735,1.18133,-8.597185,0,0,34.33577,1,1,1000,1000
225860,27:19.4,IMU,190605394,0,0.004494539,-0.001058708,0.002278436,-4.719617,1.179944,-8.592435,0,0,34.33719,1,1,1000,1000
225959,27:19.5,IMU,190645378,0,0.003138653,-0.000832992,0.002298346,-4.720414,1.178701,-8.591644,0,0,34.33861,1,1,1000,1000
226010,27:19.5,IMU,190685362,0,0.003995081,-0.000244067,0.002032106,-4.720562,1.179196,-8.593136,0,0,34.34003,1,1,1000,1000
226063,27:19.5,IMU,190725346,0,0.00301857,0.003071266,0.001950726,-4.722282,1.179725,-8.594508,0,0,34.34145,1,1,1000,1000
226162,27:19.6,IMU,190765330,0,0.002017069,0.002882568,0.001683535,-4.723348,1.178424,-8.593657,0,0,34.34287,1,1,1000,1000
226216,27:19.6,IMU,190805314,0,0.002037677,0.002897923,0.001379364,-4.725571,1.17764,-8.590537,0,0,34.34429,1,1,1000,1000
226314,27:19.7,IMU,190845298,0,0.001887053,0.002837464,0.001088362,-4.726359,1.177509,-8.587892,0,0,34.34571,1,1,1000,1000
226365,27:19.7,IMU,190885282,0,0.002454782,0.001853575,0.000898472,-4.727411,1.176573,-8.585986,0,0,34.34713,1,1,1000,1000
226419,27:19.7,IMU,190925266,0,0.002965165,0.001279045,0.000692809,-4.726881,1.175704,-8.583331,0,0,34.34856,1,1,1000,1000
226518,27:19.8,IMU,190965250,0,0.003577735,0.001649961,0.000836359,-4.727387,1.175281,-8.578135,0,0,34.34998,1,1,1000,1000
226573,27:19.8,IMU,191005234,0,0.001869519,0.000616879,0.001145555,-4.728714,1.17458,-8.585992,0,0,34.35139,1,1,1000,1000
226674,27:19.9,IMU,191045218,0,0.001988241,0.000373429,0.001336253,-4.730209,1.174843,-8.58314,0,0,34.35278,1,1,1000,1000
226725,27:19.9,IMU,191085202,0,0.003980423,-0.000234365,0.00150403,-4.730502,1.173942,-8.580464,0,0,34.3542,1,1,1000,1000
226777,27:19.9,IMU,191125186,0,0.004075752,-0.000269388,0.001787127,-4.730118,1.171102,-8.574636,0,0,34.35562,1,1,1000,1000
226877,27:20.0,IMU,191165170,0,0.004147714,0.000546953,0.00207959,-4.731354,1.171258,-8.573141,0,0,34.35704,1,1,1000,1000
226931,27:20.0,IMU,191205154,0,0.00184453,0.001622876,0.002168627,-4.732518,1.171949,-8.57633,0,0,34.35846,1,1,1000,1000
227029,27:20.1,IMU,191245138,0,0.003068114,0.00173768,0.001928818,-4.732022,1.171504,-8.570435,0,0,34.35987,1,1,1000,1000
227080,27:20.1,IMU,191285122,0,0.003174237,0.001839533,0.001707793,-4.734583,1.170314,-8.567906,0,0,34.36129,1,1,1000,1000
227134,27:20.1,IMU,191325106,0,0.002303776,0.00196885,0.001529971,-4.732907,1.169952,-8.568682,0,0,34.36271,1,1,1000,1000
227233,27:20.2,IMU,191365090,0,0.003163726,0.002064785,0.001292051,-4.734296,1.170411,-8.563917,0,0,34.36413,1,1,1000,1000
227288,27:20.2,IMU,191405074,0,0.002268223,0.002193438,0.00124024,-4.736151,1.167667,-8.563825,0,0,34.36555,1,1,1000,1000
227388,27:20.3,IMU,191445058,0,0.00327494,0.0022101,0.001084725,-4.736549,1.167786,-8.560331,0,0,34.367,1,1,1000,1000
227442,27:20.3,IMU,191485042,0,0.003627488,0.002331032,0.000880537,-4.735307,1.167415,-8.555161,0,0,34.36842,1,1,1000,1000
227494,27:20.3,IMU,191525026,0,0.002717664,0.002962273,0.001073958,-4.736246,1.165578,-8.549262,0,0,34.36983,1,1,1000,1000
227595,27:20.4,IMU,191565010,0,0.001399059,0.002856702,0.001385791,-4.737341,1.166493,-8.550283,0,0,34.37125,1,1,1000,1000
227649,27:20.4,IMU,191604994,0,0.001111285,0.002910913,0.001569291,-4.737869,1.164752,-8.549788,0,0,34.37263,1,1,1000,1000
227749,27:20.5,IMU,191644978,0,0.001137825,0.002829639,0.001805054,-4.740208,1.164624,-8.546156,0,0,34.37405,1,1,1000,1000
227800,27:20.5,IMU,191684962,0,0.001366436,0.002980192,0.001978064,-4.739013,1.163611,-8.545023,0,0,34.37547,1,1,1000,1000
227853,27:20.5,IMU,191724946,0,0.002141603,0.002601688,0.002106152,-4.74063,1.162296,-8.544954,0,0,34.37688,1,1,1000,1000
227952,27:20.6,IMU,191764930,0,0.001517807,0.004112764,0.002234994,-4.741901,1.161719,-8.540734,0,0,34.3783,1,1,1000,1000
228006,27:20.6,IMU,191804914,0,0.000651302,0.004068648,0.002232151,-4.740021,1.161351,-8.539804,0,0,34.37972,1,1,1000,1000
228104,27:20.7,IMU,191844898,0,0.000672979,0.003719445,0.002281531,-4.742233,1.160888,-8.538436,0,0,34.38113,1,1,1000,1000
228155,27:20.7,IMU,191884882,0,0.002976915,0.003833806,0.002141486,-4.741767,1.160851,-8.535859,0,0,34.38255,1,1,1000,1000
228209,27:20.7,IMU,191924866,0,0.003595088,0.003852245,0.002081925,-4.74287,1.160074,-8.534155,0,0,34.38396,1,1,1000,1000
228308,27:20.8,IMU,191964850,0,0.00377947,0.003664651,0.001891566,-4.742759,1.16,-8.533216,0,0,34.38538,1,1,1000,1000
228362,27:20.8,IMU,192004834,0,0.003334528,0.003391265,0.001713715,-4.742421,1.159534,-8.528065,0,0,34.3868,1,1,1000,1000
228463,27:20.9,IMU,192044818,0,0.003430095,0.003494625,0.001503243,-4.743428,1.159472,-8.525249,0,0,34.38821,1,1,999,999
228514,27:20.9,IMU,192084802,0,0.003685889,0.003150054,0.001213177,-4.744334,1.158073,-8.526616,0,0,34.38963,1,1,999,999
228566,27:20.9,IMU,192124786,0,0.004193701,0.002412798,0.001031522,-4.744652,1.158109,-8.524126,0,0,34.39104,1,1,999,999
228666,27:21.0,IMU,192164770,0,0.003956363,0.00278746,0.000986057,-4.745471,1.157629,-8.520268,0,0,34.39246,1,1,999,999
228720,27:21.0,IMU,192204754,0,0.003815225,0.001518861,0.001012908,-4.745915,1.156267,-8.51948,0,0,34.39387,1,1,999,999
228818,27:21.1,IMU,192244738,0,0.003675407,0.002056667,0.001107913,-4.746818,1.15494,-8.517911,0,0,34.39528,1,1,999,999
228869,27:21.1,IMU,192284722,0,0.004392051,0.002146421,0.001338609,-4.746991,1.154385,-8.520037,0,0,34.3967,1,1,999,999
228922,27:21.1,IMU,192324706,0,0.003387607,0.00218945,0.00144245,-4.747121,1.154399,-8.516076,0,0,34.39811,1,1,999,999
229021,27:21.2,IMU,192364690,0,0.003376649,0.002299861,0.001578131,-4.747744,1.155662,-8.51643,0,0,34.39952,1,1,999,999
229076,27:21.2,IMU,192404674,0,0.003203939,0.002306462,0.001726899,-4.748459,1.153533,-8.51623,0,0,34.40094,1,1,999,999
229176,27:21.3,IMU,192444658,0,0.00318478,0.002364782,0.001690354,-4.747951,1.152254,-8.517393,0,0,34.40235,1,1,999,999
229231,27:21.3,IMU,192484642,0,0.003147149,0.002479268,0.001822854,-4.749577,1.152492,-8.515681,0,0,34.40376,1,1,999,999
229283,27:21.3,IMU,192524626,0,0.003106751,0.002455139,0.001940572,-4.749051,1.152599,-8.515845,0,0,34.40517,1,1,999,999
229384,27:21.4,IMU,192564610,0,0.00308441,0.002520081,0.001962573,-4.749757,1.151798,-8.515656,0,0,34.40659,1,1,999,999
229438,27:21.4,IMU,192604594,0,0.002976179,0.002520447,0.002108102,-4.750251,1.151217,-8.515141,0,0,34.408,1,1,999,999
229536,27:21.5,IMU,192644578,0,0.003751317,0.002576612,0.001906359,-4.750741,1.149985,-8.505795,0,0,34.40941,1,1,999,999
229588,27:21.5,IMU,192685395,0,0.005413474,0.003767651,0.001643369,-4.749825,1.149674,-8.499822,0,0,34.41086,1,1,999,999
229641,27:21.5,IMU,192725379,0,0.004820026,0.004233486,0.001751981,-4.751692,1.149376,-8.502095,0,0,34.41227,1,1,999,999
229742,27:21.6,IMU,192765363,0,0.003271724,0.003370294,0.001762552,-4.751379,1.148845,-8.501225,0,0,34.41368,1,1,999,999
229796,27:21.6,IMU,192805347,0,0.003363452,0.003546475,0.00184323,-4.751606,1.149339,-8.500523,0,0,34.41509,1,1,999,999
229894,27:21.7,IMU,192845331,0,0.003813518,0.003326426,0.001836888,-4.752568,1.14711,-8.495664,0,0,34.4165,1,1,999,999
229945,27:21.7,IMU,192885315,0,0.004167571,0.002889263,0.001644209,-4.752074,1.146892,-8.495273,0,0,34.41792,1,1,999,999
229999,27:21.7,IMU,192925299,0,0.005279751,0.002395818,0.001474303,-4.751953,1.147094,-8.497347,0,0,34.41933,1,1,999,999
230098,27:21.8,IMU,192965283,0,0.003057845,0.001734115,0.001464962,-4.751625,1.14741,-8.49231,0,0,34.42074,1,1,999,999
230153,27:21.8,IMU,193005267,0,0.001257337,0.001900658,0.001464108,-4.751482,1.146424,-8.494232,0,0,34.42215,1,1,999,999
230254,27:21.9,IMU,193045251,0,0.002918179,0.001398319,0.001255861,-4.752209,1.145039,-8.489599,0,0,34.42356,1,1,1000,1000
230305,27:21.9,IMU,193085235,0,0.003753587,0.001672641,0.001242261,-4.753205,1.143924,-8.48541,0,0,34.42497,1,1,1000,1000
230357,27:21.9,IMU,193125219,0,0.003629275,0.001666093,0.001344445,-4.753803,1.143527,-8.485437,0,0,34.42635,1,1,1000,1000
230456,27:22.0,IMU,193165203,0,0.004459571,0.001912289,0.001440317,-4.753928,1.142926,-8.484905,0,0,34.42776,1,1,1000,1000
230511,27:22.0,IMU,193205187,0,0.003122421,0.00196337,0.001680276,-4.754979,1.144528,-8.487755,0,0,34.42916,1,1,1000,1000
230609,27:22.1,IMU,193245171,0,0.003285772,0.00211089,0.00178136,-4.755233,1.141452,-8.486664,0,0,34.43057,1,1,1000,1000
230660,27:22.1,IMU,193285155,0,0.003235159,0.002120699,0.001806309,-4.755353,1.141389,-8.488017,0,0,34.43198,1,1,1000,1000
230712,27:22.1,IMU,193325139,0,0.00320894,0.002279868,0.001891534,-4.755663,1.142058,-8.487263,0,0,34.43339,1,1,1000,1000
230811,27:22.2,IMU,193365123,0,0.003116742,0.002334465,0.002008848,-4.755749,1.140525,-8.489676,0,0,34.4348,1,1,1000,1000
230865,27:22.2,IMU,193405107,0,0.003046102,0.00238357,0.002088312,-4.757163,1.141082,-8.489871,0,0,34.43621,1,1,1000,1000
230966,27:22.3,IMU,193445091,0,0.007029722,0.002407582,0.001749715,-4.757372,1.138672,-8.484626,0,0,34.43762,1,1,1000,1000
231020,27:22.3,IMU,193485075,0,0.008121878,0.00243708,0.001535971,-4.755271,1.139354,-8.48384,0,0,34.43903,1,1,1000,1000
231072,27:22.3,IMU,193525059,0,0.006998597,0.002509903,0.001289186,-4.757042,1.138854,-8.483339,0,0,34.44047,1,1,1000,1000
231173,27:22.4,IMU,193565043,0,0.005815862,0.002559468,0.001045619,-4.758136,1.13896,-8.48257,0,0,34.44188,1,1,1000,1000
231227,27:22.4,IMU,193605027,0,0.004874055,0.002957429,0.001006077,-4.757352,1.138693,-8.475528,0,0,34.44328,1,1,1000,1000
231326,27:22.5,IMU,193645011,0,0.004949568,0.001923959,0.001053876,-4.758196,1.138314,-8.475495,0,0,34.44469,1,1,1000,1000
231377,27:22.5,IMU,193684995,0,0.003996869,0.001482632,0.001233701,-4.759289,1.13757,-8.478995,0,0,34.44606,1,1,1000,1000
231431,27:22.5,IMU,193724979,0,0.003264482,0.001043172,0.001381872,-4.757263,1.136503,-8.470411,0,0,34.44747,1,1,1000,1000
231530,27:22.6,IMU,193764963,0,0.004084158,0.001120905,0.001369654,-4.75902,1.137036,-8.476495,0,0,34.44888,1,1,1000,1000
231584,27:22.6,IMU,193804947,0,0.004241511,0.000618276,0.001469075,-4.759505,1.135091,-8.475766,0,0,34.45028,1,1,1000,1000
231682,27:22.7,IMU,193844931,0,0.003421386,0.0038667,0.001797951,-4.758226,1.13498,-8.468793,0,0,34.45169,1,1,1000,1000
231733,27:22.7,IMU,193884915,0,0.003566958,0.00361654,0.001863785,-4.759913,1.134744,-8.466862,0,0,34.4531,1,1,1000,1000
231787,27:22.7,IMU,193924899,0,0.00330637,0.003480708,0.002024255,-4.760694,1.134225,-8.475108,0,0,34.4545,1,1,1000,1000
231886,27:22.8,IMU,193964883,0,0.0044556,0.003379477,0.002260296,-4.760684,1.133128,-8.4728,0,0,34.45591,1,1,1000,1000
231940,27:22.8,IMU,194004867,0,0.003258604,0.003328451,0.002419295,-4.760823,1.132338,-8.471086,0,0,34.45731,1,1,1000,1000
232041,27:22.9,IMU,194044851,0,0.003198724,0.003257171,0.002444848,-4.761147,1.132689,-8.473104,0,0,34.45872,1,1,999,999
232092,27:22.9,IMU,194084835,0,0.0031108,0.00319443,0.002489269,-4.762606,1.131638,-8.474906,0,0,34.46012,1,1,999,999
232144,27:22.9,IMU,194124819,0,0.003075869,0.003124024,0.002479079,-4.76275,1.131565,-8.475083,0,0,34.46153,1,1,999,999
232243,27:23.0,IMU,194164803,0,0.003061204,0.003139104,0.002539199,-4.76339,1.13271,-8.476384,0,0,34.46294,1,1,999,999
232298,27:23.0,IMU,194204787,0,0.002979512,0.003158499,0.00253052,-4.763381,1.13022,-8.477747,0,0,34.46434,1,1,999,999
232396,27:23.1,IMU,194244771,0,0.0032491,0.003007856,0.00244405,-4.761944,1.129881,-8.475791,0,0,34.46574,1,1,999,999
232447,27:23.1,IMU,194284755,0,0.004081114,0.002992706,0.002368306,-4.7631,1.13052,-8.475908,0,0,34.46715,1,1,999,999
232500,27:23.1,IMU,194324739,0,0.003647007,0.003022107,0.002150187,-4.762552,1.129676,-8.474333,0,0,34.46856,1,1,999,999
232599,27:23.2,IMU,194364723,0,0.002802822,0.002953723,0.001888623,-4.76223,1.129764,-8.473597,0,0,34.46996,1,1,999,999
232653,27:23.2,IMU,194404707,0,0.003969523,0.002930479,0.001498944,-4.762995,1.12963,-8.476518,0,0,34.47136,1,1,999,999
232754,27:23.3,IMU,194444691,0,0.002684217,0.002238635,0.001317707,-4.763135,1.128694,-8.474871,0,0,34.47277,1,1,999,999
232808,27:23.3,IMU,194484675,0,0.004288456,-0.000393004,0.000938078,-4.763661,1.12832,-8.469228,0,0,34.47417,1,1,999,999
232860,27:23.3,IMU,194524659,0,0.00373223,-0.00153265,0.000935594,-4.76369,1.127235,-8.471539,0,0,34.47557,1,1,999,999
232961,27:23.4,IMU,194564643,0,0.004443749,-0.001564563,0.000866822,-4.763412,1.126577,-8.472049,0,0,34.47697,1,1,999,999
233015,27:23.4,IMU,194604627,0,0.004336151,0.001093175,0.001064692,-4.762608,1.125234,-8.471359,0,0,34.47838,1,1,999,999
233113,27:23.5,IMU,194644611,0,0.004387065,0.002612162,0.001251004,-4.762019,1.1255,-8.472757,0,0,34.47978,1,1,999,999
233164,27:23.5,IMU,194684595,0,0.004911794,0.003334166,0.001392444,-4.763212,1.123861,-8.473881,0,0,34.48119,1,1,999,999
233218,27:23.5,IMU,194724579,0,0.00563031,0.002583107,0.001465656,-4.763824,1.12375,-8.473855,0,0,34.48259,1,1,999,999
233317,27:23.6,IMU,194765396,0,0.003816588,0.002457724,0.001692786,-4.762791,1.12356,-8.47439,0,0,34.48402,1,1,999,999
233371,27:23.6,IMU,194805380,0,0.003887949,0.003080965,0.001803513,-4.764206,1.123722,-8.475946,0,0,34.48543,1,1,999,999
233469,27:23.7,IMU,194845364,0,0.002096565,0.002620972,0.001879048,-4.764447,1.12183,-8.475448,0,0,34.48683,1,1,999,999
233520,27:23.7,IMU,194885348,0,0.0010644,0.003066221,0.002055624,-4.764369,1.121986,-8.475934,0,0,34.48823,1,1,999,999
233574,27:23.7,IMU,194925332,0,0.002783699,0.002514126,0.002015061,-4.764765,1.121454,-8.475686,0,0,34.48963,1,1,999,999
233674,27:23.8,IMU,194965316,0,0.003259094,0.003140235,0.001990654,-4.763992,1.121065,-8.474549,0,0,34.49103,1,1,999,999
233728,27:23.8,IMU,195005300,0,0.003781795,0.004418497,0.001944819,-4.765221,1.121337,-8.476479,0,0,34.49244,1,1,999,999
233829,27:23.9,IMU,195045284,0,0.003780967,0.003900691,0.001934551,-4.764869,1.120229,-8.475618,0,0,34.49384,1,1,1000,1000
233880,27:23.9,IMU,195085268,0,0.004267643,0.004434397,0.001952883,-4.76596,1.120714,-8.479195,0,0,34.49524,1,1,1000,1000
233932,27:23.9,IMU,195125252,0,0.005629756,0.003934809,0.001857761,-4.765546,1.118799,-8.474109,0,0,34.49664,1,1,1000,1000
234031,27:24.0,IMU,195165236,0,0.003902641,0.004686812,0.001709329,-4.766255,1.120767,-8.473104,0,0,34.49804,1,1,1000,1000
234085,27:24.0,IMU,195205220,0,0.003758694,0.00279602,0.001352644,-4.767942,1.117889,-8.474864,0,0,34.4994,1,1,1000,1000
234184,27:24.1,IMU,195245204,0,0.00585678,0.001241194,0.00113375,-4.76704,1.118157,-8.483095,0,0,34.5008,1,1,1000,1000
234235,27:24.1,IMU,195285188,0,0.005620567,0.000567463,0.001320121,-4.767832,1.11696,-8.476644,0,0,34.5022,1,1,1000,1000
234287,27:24.1,IMU,195325172,0,0.003012713,0.003002786,0.001585071,-4.767531,1.115747,-8.474569,0,0,34.5036,1,1,1000,1000
234388,27:24.2,IMU,195365156,0,0.002575757,0.001984467,0.001756516,-4.767144,1.115133,-8.472219,0,0,34.505,1,1,1000,1000
234442,27:24.2,IMU,195405140,0,0.001202679,0.002178253,0.00217254,-4.76793,1.115666,-8.477695,0,0,34.5064,1,1,1000,1000
234543,27:24.3,IMU,195445124,0,0.000258855,0.00215097,0.002569858,-4.768054,1.114352,-8.478584,0,0,34.5078,1,1,1000,1000
234597,27:24.3,IMU,195485108,0,0.002051495,0.002281844,0.002745339,-4.7679,1.113837,-8.475694,0,0,34.5092,1,1,1000,1000
234649,27:24.3,IMU,195525092,0,0.002788298,0.00088665,0.002628144,-4.769921,1.114409,-8.48395,0,0,34.5106,1,1,1000,1000
234750,27:24.4,IMU,195565076,0,0.005065576,0.000669832,0.002307168,-4.769086,1.114551,-8.481192,0,0,34.51199,1,1,1000,1000
234804,27:24.4,IMU,195605060,0,0.004719231,0.001196555,0.002103987,-4.768442,1.113939,-8.480547,0,0,34.51343,1,1,1000,1000
234903,27:24.5,IMU,195645044,0,0.004464251,0.001860667,0.001951325,-4.769587,1.113561,-8.479326,0,0,34.51483,1,1,1000,1000
234954,27:24.5,IMU,195685028,0,0.004306603,0.001443318,0.001824563,-4.769049,1.112979,-8.483547,0,0,34.51622,1,1,1000,1000
235007,27:24.5,IMU,195725012,0,0.0040851,0.000365886,0.001531366,-4.769286,1.111883,-8.482605,0,0,34.51762,1,1,1000,1000
235107,27:24.6,IMU,195764996,0,0.003981179,0.001325896,0.001388052,-4.771444,1.112562,-8.484136,0,0,34.51899,1,1,1000,1000
235161,27:24.6,IMU,195804980,0,0.003760933,0.000998046,0.001205189,-4.772138,1.111472,-8.482912,0,0,34.52038,1,1,1000,1000
235259,27:24.7,IMU,195844964,0,0.003658522,0.002566126,0.00122687,-4.772961,1.109783,-8.481421,0,0,34.52178,1,1,1000,1000
235310,27:24.7,IMU,195884948,0,0.003763301,0.002464249,0.001419998,-4.772439,1.111599,-8.493825,0,0,34.52318,1,1,1000,1000
235363,27:24.7,IMU,195924932,0,0.004331543,0.003366098,0.00156697,-4.774547,1.108842,-8.492808,0,0,34.52457,1,1,1000,1000
235463,27:24.8,IMU,195964916,0,0.00326949,0.004750167,0.00173624,-4.774669,1.110613,-8.491228,0,0,34.52597,1,1,1000,1000
235517,27:24.8,IMU,196004900,0,0.002598817,0.003771645,0.002023679,-4.774005,1.108464,-8.492558,0,0,34.52737,1,1,1000,1000
235617,27:24.9,IMU,196044884,0,0.002775748,0.004180082,0.002146924,-4.774635,1.108514,-8.494774,0,0,34.52876,1,1,1000,1000
235669,27:24.9,IMU,196084868,0,0.003229036,0.002851428,0.002280065,-4.775031,1.108864,-8.496465,0,0,34.53016,1,1,1000,1000
235721,27:24.9,IMU,196124852,0,0.003787704,0.003077876,0.002191287,-4.775503,1.108304,-8.500437,0,0,34.53156,1,1,1000,1000
235820,27:25.0,IMU,196164836,0,0.002699221,0.001678493,0.002198789,-4.775829,1.107787,-8.500328,0,0,34.53295,1,1,1000,1000
235874,27:25.0,IMU,196204820,0,0.002061552,0.001278849,0.002214489,-4.777387,1.106927,-8.513288,0,0,34.53435,1,1,1000,1000
235972,27:25.1,IMU,196244804,0,0.004130477,0.003316356,0.002111867,-4.777305,1.106665,-8.508671,0,0,34.53574,1,1,1000,1000
236024,27:25.1,IMU,196284788,0,0.001370299,0.003299965,0.002024886,-4.777627,1.107252,-8.507286,0,0,34.53714,1,1,1000,1000
236077,27:25.1,IMU,196324772,0,0.003584652,0.00317693,0.001703971,-4.779961,1.106131,-8.507984,0,0,34.53853,1,1,1000,1000
236176,27:25.2,IMU,196364756,0,0.003727607,0.003149712,0.001546396,-4.778958,1.1059,-8.509637,0,0,34.53992,1,1,1000,1000
236230,27:25.2,IMU,196404740,0,0.002444678,0.003141676,0.001694239,-4.779703,1.105043,-8.512945,0,0,34.54132,1,1,1000,1000
236331,27:25.3,IMU,196444724,0,0.00264745,0.003057492,0.001732948,-4.78088,1.104508,-8.512236,0,0,34.54271,1,1,1000,1000
236385,27:25.3,IMU,196484708,0,0.002612444,0.003031662,0.001828621,-4.781288,1.103831,-8.512962,0,0,34.54411,1,1,1000,1000
236437,27:25.3,IMU,196524692,0,0.002618177,0.002969283,0.001915686,-4.781447,1.102871,-8.513744,0,0,34.5455,1,1,1000,1000
236538,27:25.4,IMU,196564676,0,0.002643969,0.00299337,0.001988694,-4.780594,1.103006,-8.512861,0,0,34.5469,1,1,1000,1000
236592,27:25.4,IMU,196604660,0,0.002639762,0.002961466,0.002106328,-4.78101,1.103331,-8.512905,0,0,34.54829,1,1,1000,1000
236690,27:25.5,IMU,196644644,0,0.003607332,0.002966569,0.002096007,-4.780931,1.102431,-8.514748,0,0,34.54968,1,1,1000,1000
236741,27:25.5,IMU,196684628,0,0.003673774,0.002936966,0.002390603,-4.783309,1.102563,-8.518526,0,0,34.55108,1,1,1000,1000
236794,27:25.5,IMU,196724612,0,0.004446684,0.003118254,0.002482567,-4.782785,1.102902,-8.527815,0,0,34.55247,1,1,1000,1000
236894,27:25.6,IMU,196764596,0,0.002901743,0.002992915,0.002576629,-4.783182,1.102018,-8.52824,0,0,34.55386,1,1,1000,1000
236948,27:25.6,IMU,196804580,0,0.00421144,0.001567777,0.002383639,-4.783444,1.10173,-8.528099,0,0,34.55526,1,1,1000,1000
237046,27:25.7,IMU,196845397,0,0.004948715,0.001764989,0.00218937,-4.782598,1.102025,-8.528749,0,0,34.55668,1,1,1000,1000
237097,27:25.7,IMU,196885381,0,0.004569603,0.000814526,0.002092066,-4.783433,1.101371,-8.531199,0,0,34.55807,1,1,1000,1000
237150,27:25.7,IMU,196925365,0,0.004061803,0.003093011,0.002099692,-4.785069,1.100473,-8.53621,0,0,34.55947,1,1,1000,1000
237297,27:25.8,IMU,196965349,0,0.004680289,0.003048746,0.00184769,-4.785282,1.101713,-8.538721,0,0,34.56086,1,1,1000,1000
237351,27:25.8,IMU,197005333,0,0.002911597,0.002993625,0.001950804,-4.785805,1.099572,-8.540456,0,0,34.56225,1,1,1000,1000
237451,27:25.9,IMU,197045317,0,0.00294632,0.002962908,0.001988923,-4.786603,1.099906,-8.538965,0,0,34.56364,1,1,999,999
237503,27:25.9,IMU,197085301,0,0.002945821,0.003033457,0.00207155,-4.786502,1.099899,-8.539111,0,0,34.56503,1,1,999,999
237555,27:25.9,IMU,197125285,0,0.003656942,0.002936269,0.002124048,-4.78616,1.099477,-8.537728,0,0,34.56643,1,1,999,999
237654,27:26.0,IMU,197165269,0,0.00371106,0.002995935,0.002140736,-4.785916,1.097479,-8.536934,0,0,34.56782,1,1,999,999
237708,27:26.0,IMU,197205253,0,0.003671117,0.002942948,0.00215732,-4.786583,1.098033,-8.535702,0,0,34.56921,1,1,999,999
237806,27:26.1,IMU,197245237,0,0.003483341,0.002914457,0.002254792,-4.784981,1.097612,-8.535681,0,0,34.5706,1,1,999,999
237858,27:26.1,IMU,197285221,0,0.003359287,0.002835906,0.002341762,-4.785543,1.097901,-8.534523,0,0,34.57195,1,1,999,999
237910,27:26.1,IMU,197325205,0,0.002103835,0.002815841,0.002327796,-4.787527,1.097565,-8.550012,0,0,34.57335,1,1,999,999
238009,27:26.2,IMU,197365189,0,0.001305682,0.002093675,0.002237048,-4.787746,1.096977,-8.548986,0,0,34.57474,1,1,999,999
238063,27:26.2,IMU,197405173,0,0.000403034,0.002325733,0.002360755,-4.786882,1.0965,-8.545731,0,0,34.57613,1,1,999,999
238163,27:26.3,IMU,197445157,0,0.001045774,0.001568431,0.002395294,-4.785685,1.09495,-8.548065,0,0,34.57751,1,1,999,999
238218,27:26.3,IMU,197485141,0,0.002326244,0.000659457,0.002226369,-4.787965,1.094761,-8.551046,0,0,34.5789,1,1,999,999
238270,27:26.3,IMU,197525125,0,0.003391055,0.003490459,0.002121087,-4.787486,1.095801,-8.552643,0,0,34.58029,1,1,999,999
238371,27:26.4,IMU,197565109,0,0.003683847,0.003374143,0.001928345,-4.788643,1.094874,-8.554605,0,0,34.58168,1,1,999,999
238425,27:26.4,IMU,197605093,0,0.001472076,0.003232993,0.0021106,-4.789193,1.09325,-8.556694,0,0,34.58307,1,1,999,999
238524,27:26.5,IMU,197645077,0,0.001684123,0.003212139,0.002144231,-4.789874,1.093346,-8.554024,0,0,34.58446,1,1,999,999
238575,27:26.5,IMU,197685061,0,0.003668393,0.003187558,0.002018223,-4.789534,1.093996,-8.553296,0,0,34.58588,1,1,999,999
238628,27:26.5,IMU,197725045,0,0.003560473,0.00311267,0.00207155,-4.78891,1.092732,-8.551434,0,0,34.58727,1,1,999,999
238727,27:26.6,IMU,197765029,0,0.003478857,0.003078735,0.002161387,-4.788802,1.092272,-8.551471,0,0,34.58866,1,1,999,999
238782,27:26.6,IMU,197805013,0,0.003393326,0.00305499,0.002230229,-4.79045,1.092834,-8.550288,0,0,34.59005,1,1,999,999
238882,27:26.7,IMU,197844997,0,0.00328693,0.00305802,0.002189972,-4.790155,1.092882,-8.549495,0,0,34.5914,1,1,999,999
238933,27:26.7,IMU,197884981,0,0.004014323,0.002574383,0.002220378,-4.79095,1.091631,-8.559771,0,0,34.59279,1,1,999,999
238986,27:26.7,IMU,197924965,0,0.00602179,0.001505043,0.002037389,-4.790393,1.091594,-8.561598,0,0,34.59418,1,1,999,999
239086,27:26.8,IMU,197964949,0,0.004951126,0.000999823,0.002100107,-4.790883,1.091039,-8.559795,0,0,34.59557,1,1,999,999
239140,27:26.8,IMU,198004933,0,0.00423207,0.001068918,0.002162456,-4.790958,1.090808,-8.560845,0,0,34.59695,1,1,999,999
239240,27:26.9,IMU,198044917,0,0.002974469,0.000861068,0.002313429,-4.790401,1.092111,-8.56203,0,0,34.59834,1,1,1000,1000
239292,27:26.9,IMU,198084901,0,0.002457926,0.001114931,0.002294421,-4.790496,1.092568,-8.563506,0,0,34.59972,1,1,1000,1000
239344,27:26.9,IMU,198124885,0,0.001642027,0.000946754,0.002217719,-4.791821,1.090192,-8.569704,0,0,34.60111,1,1,1000,1000
239443,27:27.0,IMU,198164869,0,0.001699727,0.001204829,0.002316847,-4.791768,1.090747,-8.567951,0,0,34.6025,1,1,1000,1000
239497,27:27.0,IMU,198204853,0,0.002581884,0.00139815,0.002288186,-4.791239,1.089423,-8.563713,0,0,34.60388,1,1,1000,1000
239595,27:27.1,IMU,198244837,0,0.003563873,0.001541251,0.002159025,-4.791051,1.089233,-8.560207,0,0,34.60527,1,1,1000,1000
239646,27:27.1,IMU,198284821,0,0.004591952,0.001700851,0.002180383,-4.790951,1.088851,-8.561865,0,0,34.60666,1,1,1000,1000
239700,27:27.1,IMU,198324805,0,0.008218798,0.001839111,0.002143966,-4.791729,1.089348,-8.561186,0,0,34.60804,1,1,1000,1000
239799,27:27.2,IMU,198364789,0,0.01280728,0.001990232,0.002075533,-4.79178,1.089388,-8.56039,0,0,34.60943,1,1,1000,1000
239853,27:27.2,IMU,198404773,0,0.01845387,0.000719905,0.001951498,-4.790663,1.089939,-8.559271,0,0,34.61081,1,1,1000,1000
239953,27:27.3,IMU,198444757,0,0.02261302,-0.00136713,0.001690369,-4.791959,1.091307,-8.570465,0,0,34.6122,1,1,1000,1000
240008,27:27.3,IMU,198484741,0,0.02664638,-0.002615288,0.001526981,-4.792757,1.092609,-8.570932,0,0,34.61358,1,1,1000,1000
240060,27:27.3,IMU,198524725,0,0.03042623,-0.00213393,0.001396825,-4.791204,1.092912,-8.572472,0,0,34.61497,1,1,1000,1000
240161,27:27.4,IMU,198564709,0,0.0321239,-0.001874573,0.001503819,-4.792346,1.094129,-8.574663,0,0,34.61635,1,1,1000,1000
240215,27:27.4,IMU,198604693,0,0.03130146,-0.00141603,0.00198532,-4.791562,1.09624,-8.571735,0,0,34.61774,1,1,1000,1000
240313,27:27.5,IMU,198644677,0,0.03145879,-0.004611204,0.00239924,-4.788701,1.096628,-8.566223,0,0,34.61912,1,1,1000,1000
240364,27:27.5,IMU,198684661,0,0.03522354,-0.003515225,0.003016623,-4.789715,1.097605,-8.572807,0,0,34.62051,1,1,1000,1000
240417,27:27.5,IMU,198724645,0,0.03806753,-0.002752095,0.003660633,-4.789974,1.099013,-8.573028,0,0,34.62189,1,1,1000,1000
240516,27:27.6,IMU,198764629,0,0.03730702,-0.002034273,0.00454117,-4.789811,1.099602,-8.574376,0,0,34.62327,1,1,1000,1000
240570,27:27.6,IMU,198804613,0,0.03649556,-0.001447031,0.005756661,-4.790941,1.10058,-8.582441,0,0,34.62466,1,1,1000,1000
240669,27:27.7,IMU,198844597,0,0.03680083,-0.000879071,0.006748399,-4.789368,1.102842,-8.580868,0,0,34.62604,1,1,1000,1000
240720,27:27.7,IMU,198884581,0,0.03462425,-0.003579659,0.007865122,-4.788421,1.103407,-8.575833,0,0,34.62742,1,1,1000,1000
240773,27:27.7,IMU,198925398,0,0.0333104,-0.002929715,0.0089883,-4.788089,1.103757,-8.580568,0,0,34.62884,1,1,1000,1000
240873,27:27.8,IMU,198965382,0,0.02650846,-2.6e-05,0.01070948,-4.787346,1.104427,-8.575196,0,0,34.63022,1,1,1000,1000
240928,27:27.8,IMU,199005366,0,0.02019515,0.005742672,0.01303605,-4.79013,1.103952,-8.578524,0,0,34.63161,1,1,1000,1000
241028,27:27.9,IMU,199045350,0,0.01775881,0.008606611,0.01533994,-4.788739,1.103108,-8.577143,0,0,34.63299,1,1,999,999
241080,27:27.9,IMU,199085334,0,0.01411918,0.01659311,0.0180854,-4.789949,1.103751,-8.581436,0,0,34.63437,1,1,999,999
241132,27:27.9,IMU,199125318,0,0.009486191,0.02271689,0.02114303,-4.792579,1.104125,-8.590076,0,0,34.63575,1,1,999,999
241231,27:28.0,IMU,199165302,0,0.00960952,0.02720583,0.02402785,-4.793817,1.104872,-8.587627,0,0,34.63713,1,1,999,999
241285,27:28.0,IMU,199205286,0,0.008768586,0.03528621,0.02722349,-4.795879,1.105344,-8.59136,0,0,34.63852,1,1,999,999
241383,27:28.1,IMU,199245270,0,0.008689604,0.04259842,0.03029505,-4.79763,1.105755,-8.589067,0,0,34.6399,1,1,999,999
241434,27:28.1,IMU,199285254,0,0.009790788,0.04713899,0.03280453,-4.798463,1.107511,-8.5846,0,0,34.64128,1,1,999,999
241487,27:28.1,IMU,199325238,0,0.0100675,0.04929355,0.03506278,-4.800625,1.109787,-8.582068,0,0,34.64266,1,1,999,999
241588,27:28.2,IMU,199365222,0,0.009437865,0.05264265,0.0374689,-4.801139,1.110498,-8.590448,0,0,34.644,1,1,999,999
241642,27:28.2,IMU,199405206,0,0.01220848,0.05401919,0.0392793,-4.80193,1.114182,-8.588522,0,0,34.64539,1,1,999,999
241742,27:28.3,IMU,199445190,0,0.01617865,0.05855229,0.04122967,-4.800549,1.118073,-8.586093,0,0,34.64677,1,1,999,999
241797,27:28.3,IMU,199485174,0,0.02118699,0.06511661,0.04274186,-4.801429,1.123023,-8.592316,0,0,34.64815,1,1,999,999
241849,27:28.3,IMU,199525158,0,0.02395357,0.06999005,0.04452092,-4.802395,1.127231,-8.591197,0,0,34.64953,1,1,999,999
241950,27:28.4,IMU,199565142,0,0.02526598,0.07020912,0.04614123,-4.799183,1.132006,-8.591832,0,0,34.65091,1,1,999,999
242004,27:28.4,IMU,199605126,0,0.02645884,0.07239385,0.04747315,-4.797281,1.136738,-8.598528,0,0,34.65229,1,1,999,999
242103,27:28.5,IMU,199645110,0,0.03026807,0.07276353,0.04882867,-4.793579,1.141596,-8.588821,0,0,34.65366,1,1,999,999
242154,27:28.5,IMU,199685094,0,0.03330533,0.07632649,0.05019499,-4.789886,1.148721,-8.595782,0,0,34.65504,1,1,999,999
242207,27:28.5,IMU,199725078,0,0.03498608,0.07752244,0.05181537,-4.785857,1.155272,-8.599627,0,0,34.65643,1,1,999,999
242306,27:28.6,IMU,199765062,0,0.03886542,0.07653743,0.05308671,-4.7802,1.161399,-8.598524,0,0,34.65784,1,1,999,999
242360,27:28.6,IMU,199805046,0,0.03890325,0.08144988,0.05479269,-4.773784,1.166883,-8.608502,0,0,34.65922,1,1,999,999
242459,27:28.7,IMU,199845030,0,0.04430585,0.08366711,0.05625889,-4.76706,1.175073,-8.607936,0,0,34.6606,1,1,999,999
242510,27:28.7,IMU,199885014,0,0.04492648,0.08416001,0.05821624,-4.759917,1.180737,-8.622005,0,0,34.66197,1,1,999,999
242563,27:28.7,IMU,199924998,0,0.05144179,0.08254831,0.05967156,-4.750904,1.188543,-8.620625,0,0,34.66332,1,1,999,999
242662,27:28.8,IMU,199964982,0,0.04992839,0.07981682,0.06167799,-4.741194,1.196948,-8.632233,0,0,34.6647,1,1,999,999
242717,27:28.8,IMU,200004966,0,0.05502646,0.07807916,0.06352913,-4.729077,1.204535,-8.63495,0,0,34.66608,1,1,999,999
242817,27:28.9,IMU,200044950,0,0.05539342,0.07699914,0.06574883,-4.71844,1.212131,-8.641998,0,0,34.66745,1,1,1000,1000
242869,27:28.9,IMU,200084934,0,0.05656881,0.07330753,0.06782451,-4.702452,1.2202,-8.640883,0,0,34.66883,1,1,1000,1000
242921,27:28.9,IMU,200124918,0,0.05995384,0.0664707,0.06981701,-4.689799,1.228798,-8.659718,0,0,34.67021,1,1,1000,1000
243020,27:29.0,IMU,200164902,0,0.05877273,0.05729759,0.07218544,-4.671762,1.237088,-8.658866,0,0,34.67159,1,1,1000,1000
243074,27:29.0,IMU,200204886,0,0.06034938,0.04843246,0.07445015,-4.653327,1.245037,-8.662772,0,0,34.67296,1,1,1000,1000
243172,27:29.1,IMU,200244870,0,0.06448131,0.04321217,0.076741,-4.635855,1.25454,-8.679816,0,0,34.67434,1,1,1000,1000
243224,27:29.1,IMU,200284854,0,0.06798504,0.04214875,0.07937898,-4.614585,1.263298,-8.677081,0,0,34.67571,1,1,1000,1000
243276,27:29.1,IMU,200324838,0,0.06987859,0.03759738,0.08190558,-4.59548,1.274418,-8.696787,0,0,34.67709,1,1,1000,1000
243376,27:29.2,IMU,200364822,0,0.06950898,0.03183913,0.08464546,-4.574126,1.283212,-8.698135,0,0,34.67847,1,1,1000,1000
243430,27:29.2,IMU,200404806,0,0.07087517,0.02861125,0.08738606,-4.554704,1.293497,-8.714211,0,0,34.67984,1,1,1000,1000
243530,27:29.3,IMU,200444790,0,0.07016456,0.03087287,0.09054512,-4.531458,1.302891,-8.716246,0,0,34.68122,1,1,1000,1000
243584,27:29.3,IMU,200484774,0,0.0723255,0.02796057,0.09378179,-4.511418,1.314085,-8.735392,0,0,34.68259,1,1,1000,1000
243637,27:29.3,IMU,200524758,0,0.0727252,0.02935199,0.09714383,-4.489331,1.323324,-8.745847,0,0,34.68397,1,1,1000,1000
243738,27:29.4,IMU,200564742,0,0.07477689,0.02841459,0.1003325,-4.467266,1.333991,-8.752664,0,0,34.68534,1,1,1000,1000
243792,27:29.4,IMU,200604726,0,0.07451984,0.02557048,0.1036432,-4.445873,1.344649,-8.767849,0,0,34.68672,1,1,1000,1000
243890,27:29.5,IMU,200644710,0,0.07632063,0.02458843,0.1067715,-4.423295,1.35402,-8.777004,0,0,34.6881,1,1,1000,1000
243941,27:29.5,IMU,200684694,0,0.07964855,0.02410783,0.1102799,-4.400172,1.364582,-8.782872,0,0,34.68947,1,1,1000,1000
243994,27:29.5,IMU,200724678,0,0.08036763,0.02230148,0.1139701,-4.377892,1.377932,-8.801813,0,0,34.69085,1,1,1000,1000
244093,27:29.6,IMU,200764662,0,0.08411484,0.02551609,0.1174738,-4.357065,1.389211,-8.814178,0,0,34.69222,1,1,1000,1000
244147,27:29.6,IMU,200804646,0,0.0874581,0.02571321,0.1211026,-4.332878,1.399673,-8.823507,0,0,34.6936,1,1,1000,1000
244245,27:29.7,IMU,200844630,0,0.08738971,0.02349436,0.1249027,-4.309791,1.413592,-8.834754,0,0,34.69497,1,1,1000,1000
244297,27:29.7,IMU,200884614,0,0.08686134,0.02639255,0.1286685,-4.286884,1.426422,-8.844296,0,0,34.69634,1,1,1000,1000
244350,27:29.7,IMU,200924598,0,0.0894012,0.02578618,0.132339,-4.264603,1.437681,-8.862473,0,0,34.69772,1,1,1000,1000
244450,27:29.8,IMU,200964582,0,0.08830954,0.02458541,0.136422,-4.242054,1.451053,-8.878535,0,0,34.69909,1,1,1000,1000
244505,27:29.8,IMU,201005399,0,0.09190957,0.02604696,0.1402832,-4.21826,1.463829,-8.883253,0,0,34.7005,1,1,1000,1000
244605,27:29.9,IMU,201045383,0,0.09439349,0.02497233,0.1443041,-4.195185,1.477043,-8.899408,0,0,34.70187,1,1,1000,1000
244657,27:29.9,IMU,201085367,0,0.09406913,0.02429918,0.1483133,-4.172424,1.489893,-8.910979,0,0,34.70324,1,1,1000,1000
244709,27:29.9,IMU,201125351,0,0.09596644,0.02189622,0.1522199,-4.148883,1.503466,-8.92744,0,0,34.70462,1,1,1000,1000
244808,27:30.0,IMU,201165335,0,0.0972181,0.01815766,0.1561297,-4.122478,1.516318,-8.929684,0,0,34.70599,1,1,1000,1000
244862,27:30.0,IMU,201205319,0,0.0966595,0.01734314,0.1604231,-4.096819,1.532243,-8.946386,0,0,34.70736,1,1,1000,1000
244960,27:30.1,IMU,201245303,0,0.099049,0.01575048,0.1644492,-4.072627,1.545279,-8.959395,0,0,34.70873,1,1,1000,1000
245011,27:30.1,IMU,201285287,0,0.1014558,0.01323252,0.1683661,-4.048201,1.560473,-8.978704,0,0,34.71011,1,1,1000,1000
245063,27:30.1,IMU,201325271,0,0.1008634,0.009746476,0.1724905,-4.022934,1.574055,-8.990719,0,0,34.71148,1,1,1000,1000
245162,27:30.2,IMU,201365255,0,0.1047876,0.007298367,0.1767347,-3.995318,1.588372,-8.993147,0,0,34.71285,1,1,1000,1000
245217,27:30.2,IMU,201405239,0,0.1029418,0.006895003,0.1811215,-3.970493,1.603792,-9.007258,0,0,34.71422,1,1,1000,1000
245317,27:30.3,IMU,201445223,0,0.103167,0.003057993,0.1851108,-3.948135,1.618411,-9.034843,0,0,34.71556,1,1,1000,1000
245371,27:30.3,IMU,201485207,0,0.1074774,0.001202334,0.1891039,-3.920043,1.633293,-9.039382,0,0,34.71693,1,1,1000,1000
245425,27:30.3,IMU,201525191,0,0.1103496,0.001399615,0.1929554,-3.894174,1.648768,-9.049433,0,0,34.7183,1,1,1000,1000
245526,27:30.4,IMU,201565175,0,0.1110216,-0.00025481,0.1969732,-3.86733,1.665002,-9.065331,0,0,34.71967,1,1,1000,1000
245580,27:30.4,IMU,201605159,0,0.1085486,-0.003340381,0.2010483,-3.841412,1.681013,-9.083218,0,0,34.72104,1,1,1000,1000
245679,27:30.5,IMU,201645143,0,0.1089895,-0.006282415,0.2048508,-3.815085,1.695923,-9.095964,0,0,34.72241,1,1,1000,1000
245730,27:30.5,IMU,201685127,0,0.1096492,-0.007320147,0.208622,-3.789066,1.71021,-9.107594,0,0,34.72378,1,1,1000,1000
245783,27:30.5,IMU,201725111,0,0.1110286,-0.007318033,0.2125163,-3.763059,1.727264,-9.119035,0,0,34.72515,1,1,1000,1000
245882,27:30.6,IMU,201765095,0,0.1101541,-0.008215046,0.2162338,-3.737461,1.743118,-9.134748,0,0,34.72652,1,1,1000,1000
245936,27:30.6,IMU,201805079,0,0.1075637,-0.006957872,0.2199981,-3.711569,1.758542,-9.144925,0,0,34.72789,1,1,1000,1000
246034,27:30.7,IMU,201845063,0,0.1086737,-0.005863624,0.2237077,-3.686345,1.773958,-9.157589,0,0,34.72929,1,1,1000,1000
246086,27:30.7,IMU,201885047,0,0.1052215,-7.16e-06,0.227588,-3.661146,1.789137,-9.170431,0,0,34.73066,1,1,1000,1000
246139,27:30.7,IMU,201925031,0,0.1009427,0.004496362,0.2312619,-3.637061,1.805028,-9.185589,0,0,34.73204,1,1,1000,1000
246238,27:30.8,IMU,201965015,0,0.09467957,0.00682174,0.2346457,-3.612006,1.819422,-9.195553,0,0,34.7334,1,1,1000,1000
246296,27:30.8,IMU,202004999,0,0.08772556,0.007125667,0.2375434,-3.589005,1.835474,-9.207676,0,0,34.73474,1,1,1000,1000
246396,27:30.9,IMU,202044983,0,0.08250876,0.006640258,0.2400661,-3.563616,1.84892,-9.217447,0,0,34.73611,1,1,999,999
246448,27:30.9,IMU,202084967,0,0.07704122,0.006261265,0.2423915,-3.539225,1.862105,-9.222342,0,0,34.73747,1,1,999,999
246500,27:30.9,IMU,202124951,0,0.0705872,0.002663211,0.2441674,-3.514348,1.87673,-9.236174,0,0,34.73885,1,1,999,999
246599,27:31.0,IMU,202164935,0,0.06321597,0.001870843,0.2455128,-3.490824,1.890107,-9.242359,0,0,34.74021,1,1,999,999
246653,27:31.0,IMU,202204919,0,0.05659391,-0.004288219,0.2463606,-3.466742,1.902153,-9.245526,0,0,34.74158,1,1,999,999
246751,27:31.1,IMU,202244903,0,0.0506426,-0.005382399,0.246623,-3.442519,1.915381,-9.245266,0,0,34.74295,1,1,999,999
246803,27:31.1,IMU,202284887,0,0.04449575,-0.00029658,0.2465347,-3.419131,1.927063,-9.251266,0,0,34.74432,1,1,999,999
246855,27:31.1,IMU,202324871,0,0.04124409,0.002397342,0.2455906,-3.39699,1.937637,-9.257338,0,0,34.74568,1,1,999,999
246954,27:31.2,IMU,202364855,0,0.0324395,0.01041245,0.2444954,-3.375221,1.950636,-9.26241,0,0,34.74705,1,1,999,999
247009,27:31.2,IMU,202404839,0,0.02628015,0.01594076,0.2428377,-3.355043,1.960681,-9.260078,0,0,34.74842,1,1,999,999
247109,27:31.3,IMU,202444823,0,0.02273379,0.02317565,0.2405366,-3.335564,1.969548,-9.267616,0,0,34.74978,1,1,999,999
247164,27:31.3,IMU,202484807,0,0.02289442,0.02797079,0.2376774,-3.316471,1.980563,-9.26832,0,0,34.75115,1,1,999,999
247217,27:31.3,IMU,202524791,0,0.01843943,0.03264368,0.2345937,-3.29888,1.990041,-9.264854,0,0,34.75252,1,1,999,999
247318,27:31.4,IMU,202564775,0,0.01700477,0.03020747,0.2308426,-3.282422,2.00103,-9.270404,0,0,34.75388,1,1,999,999
247372,27:31.4,IMU,202604759,0,0.01721255,0.03199173,0.2268453,-3.26382,2.007163,-9.255383,0,0,34.75525,1,1,999,999
247470,27:31.5,IMU,202644743,0,0.0156198,0.03408087,0.2227067,-3.24819,2.016742,-9.274111,0,0,34.75661,1,1,999,999
247521,27:31.5,IMU,202684727,0,0.01702531,0.03056043,0.2180314,-3.232032,2.024813,-9.262389,0,0,34.75798,1,1,999,999
247574,27:31.5,IMU,202724711,0,0.01448395,0.02755244,0.2135321,-3.21419,2.031155,-9.260887,0,0,34.75935,1,1,999,999
247673,27:31.6,IMU,202764695,0,0.01327048,0.02925462,0.2092243,-3.200281,2.040112,-9.266077,0,0,34.76071,1,1,999,999
247727,27:31.6,IMU,202804679,0,0.01185398,0.02928399,0.2047997,-3.185339,2.047117,-9.263249,0,0,34.76208,1,1,999,999
247825,27:31.7,IMU,202844663,0,0.01481287,0.02806012,0.2000659,-3.170275,2.052858,-9.259028,0,0,34.76344,1,1,999,999
247876,27:31.7,IMU,202884647,0,0.01330423,0.02593061,0.1954498,-3.155983,2.059024,-9.263352,0,0,34.7648,1,1,999,999
247930,27:31.7,IMU,202924631,0,0.0144009,0.02350817,0.1910356,-3.144346,2.064528,-9.261729,0,0,34.76617,1,1,999,999
248032,27:31.8,IMU,202964615,0,0.01182001,0.02130502,0.1866274,-3.12871,2.068814,-9.247736,0,0,34.76753,1,1,999,999
248086,27:31.8,IMU,203004599,0,0.01089963,0.01953042,0.1820344,-3.1177,2.073662,-9.258652,0,0,34.7689,1,1,999,999
248187,27:31.9,IMU,203044583,0,0.01001221,0.01928023,0.1777668,-3.104747,2.079224,-9.26069,0,0,34.77026,1,1,1000,1000
248239,27:31.9,IMU,203085400,0,0.009653351,0.02147012,0.1735573,-3.09466,2.083398,-9.262735,0,0,34.77166,1,1,1000,1000
248291,27:31.9,IMU,203125384,0,0.008465588,0.02207395,0.1694157,-3.082384,2.085777,-9.254581,0,0,34.77303,1,1,1000,1000
248390,27:32.0,IMU,203165368,0,0.007890938,0.02000005,0.1651984,-3.071426,2.09037,-9.250403,0,0,34.77439,1,1,1000,1000
248444,27:32.0,IMU,203205352,0,0.007198562,0.01779783,0.1611447,-3.060754,2.092388,-9.250956,0,0,34.77575,1,1,1000,1000
248542,27:32.1,IMU,203245336,0,0.006697977,0.0139068,0.1572337,-3.050571,2.095633,-9.247171,0,0,34.77711,1,1,1000,1000
248593,27:32.1,IMU,203285320,0,0.005610289,0.01266678,0.1536014,-3.040839,2.099379,-9.253786,0,0,34.77848,1,1,1000,1000
248645,27:32.1,IMU,203325304,0,0.004094328,0.01057352,0.1495933,-3.031308,2.099513,-9.245831,0,0,34.77984,1,1,1000,1000
248744,27:32.2,IMU,203365288,0,0.002165558,0.00829704,0.1454979,-3.021559,2.101737,-9.243629,0,0,34.7812,1,1,1000,1000
248801,27:32.2,IMU,203405272,0,0.002401728,0.007842816,0.1414443,-3.014179,2.103458,-9.24172,0,0,34.78256,1,1,1000,1000
248902,27:32.3,IMU,203445256,0,0.002410136,0.006701045,0.1378358,-3.004897,2.104955,-9.241159,0,0,34.78393,1,1,1000,1000
248956,27:32.3,IMU,203485240,0,0.000562231,0.005862784,0.1342676,-2.998594,2.105793,-9.247893,0,0,34.78529,1,1,1000,1000
249009,27:32.3,IMU,203525224,0,-0.002759906,0.001977802,0.1304795,-2.990722,2.106731,-9.243627,0,0,34.78662,1,1,1000,1000
249110,27:32.4,IMU,203565208,0,-0.007584534,-0.001439634,0.126735,-2.983536,2.106417,-9.23103,0,0,34.78798,1,1,1000,1000
249164,27:32.4,IMU,203605192,0,-0.008773273,-0.000832727,0.1229463,-2.975457,2.106586,-9.230796,0,0,34.78934,1,1,1000,1000
249263,27:32.5,IMU,203645176,0,-0.008713094,0.002299188,0.1194163,-2.971615,2.106556,-9.231129,0,0,34.7907,1,1,1000,1000
249314,27:32.5,IMU,203685160,0,-0.007428307,0.002319676,0.1154964,-2.96618,2.106053,-9.230686,0,0,34.79206,1,1,1000,1000
249367,27:32.5,IMU,203725144,0,-0.007277688,0.004387172,0.1118678,-2.96113,2.105637,-9.228209,0,0,34.79342,1,1,1000,1000
249466,27:32.6,IMU,203765128,0,-0.01169264,0.004134716,0.1083821,-2.955574,2.104947,-9.223722,0,0,34.79478,1,1,1000,1000
249520,27:32.6,IMU,203805112,0,-0.01597451,0.001869764,0.1051617,-2.953676,2.104206,-9.225775,0,0,34.79614,1,1,1000,1000
249618,27:32.7,IMU,203845096,0,-0.01691028,0.002281804,0.1016696,-2.949241,2.103607,-9.219812,0,0,34.79751,1,1,1000,1000
249669,27:32.7,IMU,203885080,0,-0.01811152,0.005010935,0.09826384,-2.945409,2.10146,-9.216032,0,0,34.79887,1,1,1000,1000
249721,27:32.7,IMU,203925064,0,-0.02031432,0.00399666,0.09468216,-2.941815,2.100691,-9.209849,0,0,34.80026,1,1,1000,1000
249822,27:32.8,IMU,203965048,0,-0.01904877,0.006348322,0.09117417,-2.940922,2.099036,-9.210619,0,0,34.80162,1,1,1000,1000
249876,27:32.8,IMU,204005032,0,-0.02239806,0.005245311,0.08774539,-2.939073,2.097055,-9.202475,0,0,34.80298,1,1,1000,1000
249977,27:32.9,IMU,204045016,0,-0.02387096,0.002530378,0.08424038,-2.938673,2.09576,-9.203405,0,0,34.80434,1,1,999,999
250029,27:32.9,IMU,204085000,0,-0.02639221,0.003594058,0.08082597,-2.937274,2.093773,-9.201854,0,0,34.8057,1,1,999,999
250081,27:32.9,IMU,204124984,0,-0.02595913,0.003455837,0.07714178,-2.934859,2.091,-9.191049,0,0,34.80702,1,1,999,999
250180,27:33.0,IMU,204164968,0,-0.02673252,0.001444157,0.07345048,-2.934649,2.089041,-9.187634,0,0,34.80838,1,1,999,999
250234,27:33.0,IMU,204204952,0,-0.02793881,-0.001811698,0.06977728,-2.934768,2.087551,-9.188382,0,0,34.80974,1,1,999,999
250332,27:33.1,IMU,204244936,0,-0.02812976,-0.000309721,0.06607058,-2.93532,2.085688,-9.18504,0,0,34.8111,1,1,999,999
250384,27:33.1,IMU,204284920,0,-0.03085602,-4.22e-05,0.06256227,-2.936339,2.082978,-9.17675,0,0,34.81246,1,1,999,999
250436,27:33.1,IMU,204324904,0,-0.03374663,0.000289195,0.05946071,-2.936198,2.080506,-9.169434,0,0,34.81382,1,1,999,999
250535,27:33.2,IMU,204364888,0,-0.03692284,0.000648655,0.05598874,-2.938726,2.077005,-9.175642,0,0,34.81517,1,1,999,999
250589,27:33.2,IMU,204404872,0,-0.03897432,0.000931754,0.05240369,-2.939784,2.074116,-9.166347,0,0,34.81653,1,1,999,999
250690,27:33.3,IMU,204444856,0,-0.03854814,0.001192032,0.04878358,-2.9417,2.071463,-9.159499,0,0,34.81789,1,1,999,999
250744,27:33.3,IMU,204484840,0,-0.03882492,0.00197137,0.04544557,-2.942962,2.069696,-9.153274,0,0,34.81925,1,1,999,999
250796,27:33.3,IMU,204524824,0,-0.04017279,0.001501115,0.04190044,-2.94694,2.066743,-9.157363,0,0,34.82061,1,1,999,999
250898,27:33.4,IMU,204564808,0,-0.03980349,0.002524778,0.03843512,-2.948692,2.064062,-9.151787,0,0,34.82196,1,1,999,999
250952,27:33.4,IMU,204604792,0,-0.04130865,0.002572407,0.03506453,-2.954225,2.059787,-9.137964,0,0,34.82332,1,1,999,999
251050,27:33.5,IMU,204644776,0,-0.04283291,0.002634116,0.0317901,-2.956044,2.057225,-9.132172,0,0,34.82468,1,1,999,999
251101,27:33.5,IMU,204684760,0,-0.04492852,0.002837691,0.02858865,-2.960901,2.054188,-9.13422,0,0,34.82603,1,1,999,999
251154,27:33.5,IMU,204724744,0,-0.04714295,0.00803972,0.02543117,-2.967058,2.052132,-9.133741,0,0,34.82739,1,1,999,999
251253,27:33.6,IMU,204764728,0,-0.04772736,0.007226657,0.02224394,-2.971775,2.048087,-9.12381,0,0,34.82874,1,1,999,999
251307,27:33.6,IMU,204804712,0,-0.04384332,0.00715891,0.01881355,-2.97644,2.044255,-9.118768,0,0,34.8301,1,1,999,999
251405,27:33.7,IMU,204844696,0,-0.03721392,0.01691718,0.01564629,-2.982159,2.042285,-9.118454,0,0,34.83146,1,1,999,999
251456,27:33.7,IMU,204884680,0,-0.02740226,0.02567537,0.01259782,-2.989169,2.039301,-9.111824,0,0,34.83281,1,1,999,999
251508,27:33.7,IMU,204924664,0,-0.01783976,0.03106995,0.009780794,-2.9971,2.037611,-9.113393,0,0,34.83417,1,1,999,999
251610,27:33.8,IMU,204964648,0,-0.01134014,0.02789592,0.007256774,-3.003808,2.035812,-9.109455,0,0,34.83553,1,1,999,999
251664,27:33.8,IMU,205004632,0,-0.005482446,0.02512765,0.005192287,-3.01069,2.037117,-9.114004,0,0,34.83688,1,1,999,999
251765,27:33.9,IMU,205044616,0,0.000215281,0.01841553,0.003189157,-3.015513,2.036362,-9.111202,0,0,34.83823,1,1,1000,1000
251817,27:33.9,IMU,205084600,0,0.001809075,0.009706113,0.001269303,-3.021565,2.035415,-9.104816,0,0,34.83959,1,1,1000,1000
251869,27:33.9,IMU,205124584,0,0.003860783,0.002664726,-0.000357411,-3.02707,2.035718,-9.104545,0,0,34.84094,1,1,1000,1000
251968,27:34.0,IMU,205165401,0,0.005048642,0.000409133,-0.001435909,-3.032729,2.033153,-9.099794,0,0,34.84233,1,1,1000,1000
252022,27:34.0,IMU,205205385,0,0.005300351,-0.002071429,-0.002257605,-3.035151,2.033324,-9.103454,0,0,34.84369,1,1,1000,1000
252120,27:34.1,IMU,205245369,0,0.003271959,-0.005115937,-0.002638428,-3.040472,2.03251,-9.10033,0,0,34.84504,1,1,1000,1000
252172,27:34.1,IMU,205285353,0,0.00030731,-0.00687911,-0.003092655,-3.042603,2.030794,-9.095036,0,0,34.84639,1,1,1000,1000
252224,27:34.1,IMU,205325337,0,-0.003508413,-0.008288575,-0.003346698,-3.046875,2.028433,-9.089894,0,0,34.84775,1,1,1000,1000
252323,27:34.2,IMU,205365321,0,-0.01074714,-0.01192442,-0.003651137,-3.05107,2.028114,-9.097127,0,0,34.8491,1,1,1000,1000
252377,27:34.2,IMU,205405305,0,-0.01656625,-0.01355096,-0.003809687,-3.056795,2.025742,-9.100992,0,0,34.85046,1,1,1000,1000
252477,27:34.3,IMU,205445289,0,-0.02162917,-0.01169971,-0.003888039,-3.059321,2.022734,-9.094816,0,0,34.85181,1,1,1000,1000
252532,27:34.3,IMU,205485273,0,-0.02564292,-0.006829446,-0.004125793,-3.064013,2.020166,-9.093238,0,0,34.85316,1,1,1000,1000
252584,27:34.3,IMU,205525257,0,-0.02950598,-0.005913807,-0.004601663,-3.068529,2.017229,-9.087229,0,0,34.85452,1,1,1000,1000
252686,27:34.4,IMU,205565241,0,-0.03364333,-0.005861782,-0.005360537,-3.074197,2.016266,-9.098854,0,0,34.85587,1,1,1000,1000
252741,27:34.4,IMU,205605225,0,-0.03670387,-0.004842976,-0.006422529,-3.077097,2.012359,-9.088317,0,0,34.85719,1,1,1000,1000
252839,27:34.5,IMU,205645209,0,-0.03906593,-0.007603679,-0.00768908,-3.083279,2.010421,-9.087507,0,0,34.85854,1,1,1000,1000
252890,27:34.5,IMU,205685193,0,-0.04046061,-0.006492796,-0.009077778,-3.088978,2.009084,-9.094415,0,0,34.85989,1,1,1000,1000
252943,27:34.5,IMU,205725177,0,-0.04163816,-0.00387581,-0.01074263,-3.094897,2.003951,-9.094049,0,0,34.86124,1,1,1000,1000
253042,27:34.6,IMU,205765161,0,-0.0431094,-0.001594304,-0.01244489,-3.099428,2.002107,-9.090226,0,0,34.86259,1,1,1000,1000
253096,27:34.6,IMU,205805145,0,-0.04256022,0.002068758,-0.01423259,-3.106024,2.000156,-9.090604,0,0,34.86395,1,1,1000,1000
253194,27:34.7,IMU,205845129,0,-0.04214654,0.003188865,-0.0160076,-3.113649,1.996923,-9.088537,0,0,34.8653,1,1,1000,1000
253245,27:34.7,IMU,205885113,0,-0.04371103,0.002882341,-0.01799811,-3.119845,1.996191,-9.099473,0,0,34.86665,1,1,1000,1000
253297,27:34.7,IMU,205925097,0,-0.04298032,0.003140852,-0.02008881,-3.126182,1.992305,-9.086149,0,0,34.868,1,1,1000,1000
253398,27:34.8,IMU,205965081,0,-0.04546279,0.005511858,-0.02193046,-3.134824,1.990715,-9.092018,0,0,34.86935,1,1,1000,1000
253453,27:34.8,IMU,206005065,0,-0.04611192,0.005567851,-0.02405337,-3.141344,1.988921,-9.093033,0,0,34.87074,1,1,1000,1000
253554,27:34.9,IMU,206045049,0,-0.04662285,0.007676895,-0.02626118,-3.1495,1.98473,-9.090497,0,0,34.87209,1,1,1000,1000
253606,27:34.9,IMU,206085033,0,-0.04493652,0.01050249,-0.0283916,-3.156732,1.98285,-9.078587,0,0,34.87344,1,1,1000,1000
253658,27:34.9,IMU,206125017,0,-0.04325886,0.008457685,-0.0309596,-3.164294,1.97915,-9.084417,0,0,34.87479,1,1,1000,1000
253757,27:35.0,IMU,206165001,0,-0.04287874,0.007906942,-0.03333342,-3.172534,1.976959,-9.077816,0,0,34.87614,1,1,1000,1000
253811,27:35.0,IMU,206204985,0,-0.04426925,0.007040187,-0.03557245,-3.180342,1.974869,-9.079458,0,0,34.87745,1,1,1000,1000
253909,27:35.1,IMU,206244969,0,-0.04548735,0.007509393,-0.03782183,-3.189402,1.97241,-9.084362,0,0,34.8788,1,1,1000,1000
253961,27:35.1,IMU,206284953,0,-0.046928,0.006482417,-0.04006285,-3.196958,1.969833,-9.07616,0,0,34.88015,1,1,1000,1000
254013,27:35.1,IMU,206324937,0,-0.0482793,0.006093798,-0.04214754,-3.205312,1.967007,-9.069309,0,0,34.8815,1,1,1000,1000
254112,27:35.2,IMU,206364921,0,-0.05101056,0.003912169,-0.04426116,-3.215322,1.963675,-9.076759,0,0,34.88285,1,1,1000,1000
254166,27:35.2,IMU,206404905,0,-0.05302736,0.003772326,-0.04672717,-3.2225,1.960934,-9.070385,0,0,34.8842,1,1,1000,1000
254266,27:35.3,IMU,206444889,0,-0.05431329,0.003658461,-0.04890972,-3.231831,1.956662,-9.065998,0,0,34.88554,1,1,1000,1000
254321,27:35.3,IMU,206484873,0,-0.05334831,0.003894004,-0.05119076,-3.243424,1.955012,-9.074934,0,0,34.88689,1,1,1000,1000
254373,27:35.3,IMU,206524857,0,-0.05238351,0.003336167,-0.05357666,-3.250542,1.95157,-9.063908,0,0,34.88824,1,1,1000,1000
254475,27:35.4,IMU,206564841,0,-0.05028367,0.004377848,-0.05571871,-3.258741,1.947955,-9.060732,0,0,34.88959,1,1,1000,1000
254530,27:35.4,IMU,206604825,0,-0.05023228,0.002834812,-0.05806568,-3.270874,1.94503,-9.072145,0,0,34.89094,1,1,1000,1000
254628,27:35.5,IMU,206644809,0,-0.05059591,0.003973976,-0.06020407,-3.278962,1.940767,-9.0646,0,0,34.89229,1,1,1000,1000
254679,27:35.5,IMU,206684793,0,-0.05254178,0.006674631,-0.06208704,-3.289699,1.937688,-9.06035,0,0,34.89363,1,1,1000,1000
254731,27:35.5,IMU,206724777,0,-0.05538281,0.005722021,-0.06427453,-3.299776,1.934074,-9.056765,0,0,34.89498,1,1,1000,1000
254831,27:35.6,IMU,206764761,0,-0.05580252,0.005997927,-0.06652663,-3.309758,1.930806,-9.054956,0,0,34.89633,1,1,1000,1000
254885,27:35.6,IMU,206804745,0,-0.05606419,0.00539417,-0.06858844,-3.320551,1.927038,-9.062174,0,0,34.89767,1,1,1000,1000
254983,27:35.7,IMU,206844729,0,-0.05606083,0.006302849,-0.07100073,-3.330961,1.923243,-9.056519,0,0,34.89902,1,1,1000,1000
255034,27:35.7,IMU,206884713,0,-0.05542922,-4.79e-05,-0.07364817,-3.342611,1.918044,-9.048673,0,0,34.90037,1,1,1000,1000
255086,27:35.7,IMU,206924697,0,-0.05655564,-0.001098857,-0.07606507,-3.354436,1.915118,-9.049339,0,0,34.90171,1,1,1000,1000
255187,27:35.8,IMU,206964681,0,-0.05666108,-0.000772039,-0.07830168,-3.364051,1.911162,-9.044311,0,0,34.90306,1,1,1000,1000
255242,27:35.8,IMU,207004665,0,-0.05948084,0.001160724,-0.08043092,-3.376515,1.908042,-9.045532,0,0,34.90441,1,1,1000,1000
255342,27:35.9,IMU,207044649,0,-0.05746548,0.001783229,-0.08286935,-3.386556,1.903397,-9.040331,0,0,34.90575,1,1,999,999
255395,27:35.9,IMU,207084633,0,-0.05801696,0.002503328,-0.08495498,-3.399332,1.897949,-9.036764,0,0,34.9071,1,1,999,999
255447,27:35.9,IMU,207124617,0,-0.05678245,0.000947979,-0.08751445,-3.411749,1.893677,-9.03886,0,0,34.90845,1,1,999,999
255546,27:36.0,IMU,207164601,0,-0.05765151,0.001252621,-0.08969699,-3.424001,1.888687,-9.033201,0,0,34.90979,1,1,999,999
255600,27:36.0,IMU,207204585,0,-0.06018036,0.002500446,-0.09160917,-3.435676,1.884532,-9.026905,0,0,34.91114,1,1,999,999
255698,27:36.1,IMU,207245402,0,-0.06343225,9.77481e-05,-0.0940128,-3.44852,1.878812,-9.029147,0,0,34.91251,1,1,999,999
255750,27:36.1,IMU,207285386,0,-0.06260943,0.003827417,-0.09631747,-3.462975,1.873162,-9.024005,0,0,34.91386,1,1,999,999
255802,27:36.1,IMU,207325370,0,-0.06091007,0.005441125,-0.09872911,-3.475075,1.867451,-9.01889,0,0,34.9152,1,1,999,999
255901,27:36.2,IMU,207365354,0,-0.06063615,0.001212246,-0.1011313,-3.490436,1.863111,-9.024918,0,0,34.91655,1,1,999,999
255957,27:36.2,IMU,207405338,0,-0.06233797,-0.001748709,-0.1033223,-3.503227,1.856879,-9.018108,0,0,34.91789,1,1,999,999
256057,27:36.3,IMU,207445322,0,-0.06690478,-0.001681904,-0.1053293,-3.515603,1.850799,-9.006895,0,0,34.91924,1,1,999,999
256111,27:36.3,IMU,207485306,0,-0.06492323,-0.002964427,-0.1077131,-3.531455,1.844564,-9.011354,0,0,34.92058,1,1,999,999
256164,27:36.3,IMU,207525290,0,-0.06272126,-0.00230626,-0.1102036,-3.543286,1.838489,-8.998575,0,0,34.92192,1,1,999,999
256266,27:36.4,IMU,207565274,0,-0.063368,-0.0053972,-0.112671,-3.559973,1.833632,-9.013118,0,0,34.92327,1,1,999,999
256321,27:36.4,IMU,207605258,0,-0.06554881,-0.004268799,-0.1149001,-3.572579,1.825258,-8.995444,0,0,34.92461,1,1,999,999
256419,27:36.5,IMU,207645242,0,-0.06593447,-0.007139236,-0.1172386,-3.586828,1.820341,-9.003961,0,0,34.92596,1,1,999,999
256470,27:36.5,IMU,207685226,0,-0.06454717,-0.006877857,-0.1196982,-3.601884,1.812707,-8.993649,0,0,34.92727,1,1,999,999
256522,27:36.5,IMU,207725210,0,-0.06639692,-0.0158498,-0.1221887,-3.617194,1.807898,-8.991366,0,0,34.92861,1,1,999,999
256622,27:36.6,IMU,207765194,0,-0.06667688,-0.01994436,-0.1248742,-3.63302,1.800036,-8.987013,0,0,34.92995,1,1,999,999
256676,27:36.6,IMU,207805178,0,-0.06176693,-0.0218412,-0.127807,-3.646261,1.793288,-8.979555,0,0,34.93129,1,1,999,999
256774,27:36.7,IMU,207845162,0,-0.05630881,-0.03006877,-0.1308867,-3.66163,1.785365,-8.978941,0,0,34.93264,1,1,999,999
256828,27:36.7,IMU,207885146,0,-0.05089051,-0.0285175,-0.1336182,-3.675101,1.779849,-8.978844,0,0,34.93398,1,1,999,999
256880,27:36.7,IMU,207925130,0,-0.0484709,-0.02847849,-0.1358986,-3.691126,1.770418,-8.966662,0,0,34.93532,1,1,999,999
256983,27:36.8,IMU,207965114,0,-0.04152933,-0.02850201,-0.138038,-3.706625,1.764904,-8.964709,0,0,34.93666,1,1,999,999
257037,27:36.8,IMU,208005098,0,-0.04188688,-0.03140566,-0.1396854,-3.723838,1.759221,-8.968874,0,0,34.938,1,1,999,999
257138,27:36.9,IMU,208045082,0,-0.03556544,-0.03379927,-0.1411714,-3.739098,1.751096,-8.953291,0,0,34.93935,1,1,1000,1000
257191,27:36.9,IMU,208085066,0,-0.03340576,-0.04045752,-0.1425005,-3.755811,1.745572,-8.958706,0,0,34.94072,1,1,1000,1000
257243,27:36.9,IMU,208125050,0,-0.02636327,-0.04765138,-0.1437975,-3.772598,1.7386,-8.945938,0,0,34.94206,1,1,1000,1000
257342,27:37.0,IMU,208165034,0,-0.02159979,-0.06116941,-0.1446788,-3.788034,1.732546,-8.941223,0,0,34.9434,1,1,1000,1000
257396,27:37.0,IMU,208205018,0,-0.01763147,-0.07018078,-0.1456149,-3.802245,1.726549,-8.940697,0,0,34.94474,1,1,1000,1000
257494,27:37.1,IMU,208245002,0,-0.01411512,-0.08427864,-0.1465203,-3.815211,1.719442,-8.920079,0,0,34.94608,1,1,1000,1000
257546,27:37.1,IMU,208284986,0,-0.01196204,-0.09198316,-0.1467672,-3.828063,1.713717,-8.919662,0,0,34.94739,1,1,1000,1000
257598,27:37.1,IMU,208324970,0,-0.01023539,-0.09629755,-0.1468696,-3.839582,1.707393,-8.911109,0,0,34.94873,1,1,1000,1000
257697,27:37.2,IMU,208364954,0,-0.008813092,-0.07739894,-0.146012,-3.857432,1.700627,-8.913386,0,0,34.95007,1,1,1000,1000
257751,27:37.2,IMU,208404938,0,-0.003666114,-0.05921865,-0.1447798,-3.875003,1.695343,-8.907286,0,0,34.95141,1,1,1000,1000
257851,27:37.3,IMU,208444922,0,-0.006803662,-0.04360224,-0.1422691,-3.897371,1.688241,-8.906181,0,0,34.95275,1,1,1000,1000
257905,27:37.3,IMU,208484906,0,-0.002294536,-0.03135218,-0.1396153,-3.91952,1.6818,-8.900492,0,0,34.95409,1,1,1000,1000
257957,27:37.3,IMU,208524890,0,-3.08e-05,-0.02280753,-0.1364801,-3.943073,1.676128,-8.897383,0,0,34.95543,1,1,1000,1000
258059,27:37.4,IMU,208564874,0,-0.002329795,-0.01623521,-0.1328363,-3.966625,1.670604,-8.890601,0,0,34.95677,1,1,1000,1000
258115,27:37.4,IMU,208604858,0,-0.001787504,-0.01362721,-0.1288943,-3.989595,1.6643,-8.872849,0,0,34.95811,1,1,1000,1000
258213,27:37.5,IMU,208644842,0,0.002114423,-0.01145297,-0.1252577,-4.014226,1.657793,-8.869,0,0,34.95945,1,1,1000,1000
258264,27:37.5,IMU,208684826,0,-7.9e-05,-0.009569918,-0.1210299,-4.038001,1.651196,-8.860079,0,0,34.96078,1,1,1000,1000
258316,27:37.5,IMU,208724810,0,0.000394522,-0.008075699,-0.1173869,-4.058836,1.645752,-8.845222,0,0,34.96212,1,1,1000,1000
258416,27:37.6,IMU,208764794,0,0.004402287,-0.00563605,-0.1139762,-4.082076,1.640777,-8.833445,0,0,34.96346,1,1,1000,1000
258470,27:37.6,IMU,208804778,0,0.007610934,-0.001744267,-0.1106038,-4.103243,1.635975,-8.825699,0,0,34.9648,1,1,1000,1000
258568,27:37.7,IMU,208844762,0,0.01004896,-0.000298374,-0.1073909,-4.123592,1.631133,-8.810196,0,0,34.96614,1,1,1000,1000
258619,27:37.7,IMU,208884746,0,0.01284916,0.000643698,-0.1040614,-4.144945,1.62878,-8.79683,0,0,34.96748,1,1,1000,1000
258671,27:37.7,IMU,208924730,0,0.01398922,-0.000478414,-0.1007845,-4.163909,1.624243,-8.785294,0,0,34.96881,1,1,1000,1000
258772,27:37.8,IMU,208964714,0,0.01404115,0.00021516,-0.09750593,-4.184285,1.621306,-8.775549,0,0,34.97015,1,1,1000,1000
258826,27:37.8,IMU,209004698,0,0.01480892,0.000613873,-0.09447342,-4.203506,1.617752,-8.767383,0,0,34.97149,1,1,1000,1000
258927,27:37.9,IMU,209044682,0,0.0161166,-0.001181231,-0.09175333,-4.220538,1.615284,-8.753319,0,0,34.97282,1,1,999,999
258980,27:37.9,IMU,209084666,0,0.01725894,-0.004617653,-0.08927946,-4.236539,1.611472,-8.744297,0,0,34.97416,1,1,999,999
259032,27:37.9,IMU,209124650,0,0.01753948,-0.005132683,-0.08673118,-4.25334,1.609839,-8.73314,0,0,34.9755,1,1,999,999
259131,27:38.0,IMU,209164634,0,0.01891792,-0.004492852,-0.0842254,-4.269749,1.606842,-8.723923,0,0,34.97684,1,1,999,999
259185,27:38.0,IMU,209204618,0,0.01999637,-0.006509831,-0.0817724,-4.283832,1.605446,-8.712496,0,0,34.97817,1,1,999,999
259283,27:38.1,IMU,209244602,0,0.02299231,-0.005121997,-0.07937853,-4.298059,1.601994,-8.707798,0,0,34.97951,1,1,999,999
259335,27:38.1,IMU,209284586,0,0.02779239,-0.007407995,-0.07734181,-4.311755,1.600278,-8.696655,0,0,34.98084,1,1,999,999
259387,27:38.1,IMU,209325403,0,0.03015203,-0.009614985,-0.07518142,-4.327534,1.598223,-8.688817,0,0,34.98221,1,1,999,999
259486,27:38.2,IMU,209365387,0,0.03090282,-0.00945717,-0.07281788,-4.339359,1.596719,-8.678266,0,0,34.98355,1,1,999,999
259540,27:38.2,IMU,209405371,0,0.03092562,-0.009607268,-0.07008898,-4.351091,1.595266,-8.66759,0,0,34.98488,1,1,999,999
259640,27:38.3,IMU,209445355,0,0.03121714,-0.007879904,-0.06754392,-4.364171,1.594395,-8.662429,0,0,34.98622,1,1,999,999
259694,27:38.3,IMU,209485339,0,0.03231631,-0.008260089,-0.0652569,-4.375796,1.591863,-8.654965,0,0,34.98756,1,1,999,999
259746,27:38.3,IMU,209525323,0,0.03307888,-0.01077969,-0.06312929,-4.387465,1.591294,-8.654439,0,0,34.98889,1,1,999,999
259848,27:38.4,IMU,209565307,0,0.03518178,-0.01029527,-0.06090626,-4.397313,1.59012,-8.644008,0,0,34.99023,1,1,999,999
259904,27:38.4,IMU,209605291,0,0.03391707,-0.01219793,-0.05847028,-4.407625,1.588423,-8.630363,0,0,34.99156,1,1,999,999
260002,27:38.5,IMU,209645275,0,0.03565298,-0.01014099,-0.05588819,-4.418443,1.588504,-8.633415,0,0,34.99289,1,1,999,999
260053,27:38.5,IMU,209685259,0,0.03732181,-0.008472133,-0.05353337,-4.428043,1.586678,-8.6318,0,0,34.99422,1,1,999,999
260105,27:38.5,IMU,209725243,0,0.03770133,-0.01065829,-0.05136676,-4.438094,1.585231,-8.627626,0,0,34.99556,1,1,999,999
260205,27:38.6,IMU,209765227,0,0.03661906,-0.01188794,-0.04920235,-4.446141,1.584896,-8.614478,0,0,34.99686,1,1,999,999
260259,27:38.6,IMU,209805211,0,0.03722704,-0.01280611,-0.04686699,-4.454566,1.583624,-8.607298,0,0,34.9982,1,1,999,999
260357,27:38.7,IMU,209845195,0,0.03966365,-0.008646507,-0.04451068,-4.464114,1.581966,-8.598892,0,0,34.99953,1,1,999,999
260408,27:38.7,IMU,209885179,0,0.04268937,-0.007204231,-0.04234424,-4.472034,1.582786,-8.596909,0,0,35.00086,1,1,999,999
260461,27:38.7,IMU,209925163,0,0.04287584,-0.008722842,-0.04016551,-4.479668,1.579942,-8.592378,0,0,35.0022,1,1,999,999
260561,27:38.8,IMU,209965147,0,0.04222575,-0.01161251,-0.03828166,-4.488078,1.580915,-8.593076,0,0,35.00353,1,1,999,999
260615,27:38.8,IMU,210005131,0,0.04062694,-0.01205511,-0.0359212,-4.49572,1.580055,-8.585618,0,0,35.00486,1,1,999,999
260715,27:38.9,IMU,210045115,0,0.03929155,-0.01160698,-0.03342718,-4.501744,1.576675,-8.579819,0,0,35.0062,1,1,1000,1000
260769,27:38.9,IMU,210085099,0,0.03877141,-0.009694267,-0.03104384,-4.50802,1.576235,-8.57924,0,0,35.00753,1,1,1000,1000
260821,27:38.9,IMU,210125083,0,0.03609307,-0.007983825,-0.02862003,-4.515322,1.575274,-8.576895,0,0,35.00886,1,1,1000,1000
260920,27:39.0,IMU,210165067,0,0.03463444,-0.008094084,-0.026544,-4.520242,1.572901,-8.56998,0,0,35.01019,1,1,1000,1000
260974,27:39.0,IMU,210205051,0,0.03246526,-0.008098166,-0.0242977,-4.527562,1.572272,-8.567408,0,0,35.01155,1,1,1000,1000
261072,27:39.1,IMU,210245035,0,0.03048763,-0.006736145,-0.02201146,-4.534558,1.570521,-8.562618,0,0,35.01289,1,1,1000,1000
261124,27:39.1,IMU,210285019,0,0.03060452,-0.008731351,-0.01985099,-4.538589,1.569072,-8.555807,0,0,35.01422,1,1,1000,1000
261176,27:39.1,IMU,210325003,0,0.03085365,-0.007126958,-0.01753699,-4.544779,1.568055,-8.558599,0,0,35.01555,1,1,1000,1000
261275,27:39.2,IMU,210364987,0,0.03040984,-0.005889703,-0.01533483,-4.550539,1.567244,-8.558689,0,0,35.01685,1,1,1000,1000
261329,27:39.2,IMU,210404971,0,0.0294069,-0.004736956,-0.01335609,-4.554727,1.564804,-8.552713,0,0,35.01818,1,1,1000,1000
261429,27:39.3,IMU,210444955,0,0.0289647,-0.003680877,-0.01170337,-4.56025,1.56398,-8.554109,0,0,35.01951,1,1,1000,1000
261483,27:39.3,IMU,210484939,0,0.02918715,-0.005602489,-0.01011398,-4.564916,1.562512,-8.551704,0,0,35.02084,1,1,1000,1000
261535,27:39.3,IMU,210524923,0,0.02710221,-0.006216413,-0.008462016,-4.567772,1.561771,-8.540474,0,0,35.02217,1,1,1000,1000
261636,27:39.4,IMU,210564907,0,0.02372525,-0.005719244,-0.006558011,-4.573621,1.558273,-8.541204,0,0,35.0235,1,1,1000,1000
261693,27:39.4,IMU,210604891,0,0.01695372,-0.003779864,-0.004329479,-4.577043,1.558115,-8.541471,0,0,35.02483,1,1,1000,1000
261791,27:39.5,IMU,210644875,0,0.01432924,0.000222117,-0.0020377,-4.581696,1.555177,-8.533864,0,0,35.02616,1,1,1000,1000
261842,27:39.5,IMU,210684859,0,0.01023876,0.000453416,-8.55e-05,-4.586732,1.555223,-8.537189,0,0,35.02749,1,1,1000,1000
261894,27:39.5,IMU,210724843,0,0.003941447,0.000802693,0.001925721,-4.59051,1.551925,-8.53463,0,0,35.02882,1,1,1000,1000
261994,27:39.6,IMU,210764827,0,-0.002142492,0.001763914,0.00372586,-4.593724,1.549904,-8.530788,0,0,35.03015,1,1,1000,1000
262048,27:39.6,IMU,210804811,0,-0.005428552,0.004938328,0.005277717,-4.597716,1.547194,-8.527786,0,0,35.03148,1,1,1000,1000
262146,27:39.7,IMU,210844795,0,-0.00680211,0.005523492,0.00672494,-4.599734,1.543553,-8.525042,0,0,35.03281,1,1,1000,1000
262197,27:39.7,IMU,210884779,0,-0.008747711,0.006206297,0.007899238,-4.604647,1.542577,-8.532331,0,0,35.03414,1,1,1000,1000
262250,27:39.7,IMU,210924763,0,-0.009324959,0.007386788,0.008547825,-4.607184,1.539197,-8.527004,0,0,35.03547,1,1,1000,1000
262350,27:39.8,IMU,210964747,0,-0.009546923,0.009059322,0.008822534,-4.612772,1.538363,-8.52512,0,0,35.03679,1,1,1000,1000
262404,27:39.8,IMU,211004731,0,-0.01061269,0.01030014,0.009113761,-4.614697,1.535493,-8.522614,0,0,35.03812,1,1,1000,1000
262504,27:39.9,IMU,211044715,0,-0.01157425,0.008579952,0.009057049,-4.617391,1.533696,-8.522473,0,0,35.03945,1,1,1000,1000
262556,27:39.9,IMU,211084699,0,-0.009013476,0.008086624,0.008515432,-4.6208,1.532276,-8.519459,0,0,35.04078,1,1,1000,1000
262610,27:39.9,IMU,211124683,0,-0.009332808,0.007442352,0.008193983,-4.622576,1.53077,-8.518961,0,0,35.04211,1,1,1000,1000
262709,27:40.0,IMU,211164667,0,-0.01136261,0.006818769,0.008005442,-4.625447,1.527828,-8.517998,0,0,35.04343,1,1,1000,1000
262763,27:40.0,IMU,211204651,0,-0.01341357,0.006321565,0.007933551,-4.627999,1.527887,-8.517978,0,0,35.04476,1,1,1000,1000
262861,27:40.1,IMU,211244635,0,-0.01174739,0.005908004,0.007445857,-4.630164,1.526545,-8.513618,0,0,35.04609,1,1,1000,1000
262913,27:40.1,IMU,211284619,0,-0.01040463,0.005541788,0.007097033,-4.631174,1.524601,-8.515266,0,0,35.04742,1,1,1000,1000
262965,27:40.1,IMU,211324603,0,-0.01017261,0.00525741,0.007164251,-4.633694,1.524179,-8.519016,0,0,35.04874,1,1,1000,1000
263064,27:40.2,IMU,211364587,0,-0.009341861,0.005509523,0.007252072,-4.635952,1.522953,-8.517262,0,0,35.05007,1,1,1000,1000
263118,27:40.2,IMU,211405404,0,-0.008182101,0.007338115,0.00719523,-4.637254,1.523324,-8.517961,0,0,35.05143,1,1,1000,1000
263220,27:40.3,IMU,211445388,0,-0.006331285,0.007806629,0.007186421,-4.639608,1.522075,-8.516706,0,0,35.05276,1,1,1000,1000
263274,27:40.3,IMU,211485372,0,-0.005159367,0.007762233,0.007109934,-4.641793,1.523807,-8.519493,0,0,35.05408,1,1,1000,1000
263326,27:40.3,IMU,211525356,0,-0.003787103,0.007561813,0.006785762,-4.643888,1.522558,-8.517799,0,0,35.05541,1,1,1000,1000
263427,27:40.4,IMU,211565340,0,-0.004299454,0.007463385,0.006462737,-4.646134,1.523135,-8.515267,0,0,35.05673,1,1,1000,1000
263484,27:40.4,IMU,211605324,0,-0.006488945,0.007048003,0.006246683,-4.646971,1.522617,-8.512119,0,0,35.05806,1,1,1000,1000
263582,27:40.5,IMU,211645308,0,-0.005488415,0.006528545,0.005679219,-4.647546,1.522704,-8.50987,0,0,35.05938,1,1,1000,1000
263633,27:40.5,IMU,211685292,0,-0.006002274,0.004888767,0.005158734,-4.651105,1.52453,-8.515645,0,0,35.06071,1,1,1000,1000
263685,27:40.5,IMU,211725276,0,-0.006695583,0.005083374,0.005016434,-4.651685,1.523716,-8.515454,0,0,35.06203,1,1,1000,1000
263785,27:40.6,IMU,211765260,0,-0.007445794,0.005309373,0.004930584,-4.653461,1.523802,-8.512587,0,0,35.06336,1,1,1000,1000
263839,27:40.6,IMU,211805244,0,-0.006877857,0.005633437,0.00479785,-4.653356,1.523376,-8.510626,0,0,35.06469,1,1,1000,1000
263937,27:40.7,IMU,211845228,0,-0.005822591,0.006299736,0.004782183,-4.65505,1.524283,-8.51062,0,0,35.06598,1,1,1000,1000
263988,27:40.7,IMU,211885212,0,-0.003470347,0.004489962,0.004847091,-4.653246,1.524906,-8.507189,0,0,35.0673,1,1,1000,1000
264041,27:40.7,IMU,211925196,0,-0.00272054,0.005074179,0.005113798,-4.655474,1.525026,-8.506958,0,0,35.06863,1,1,1000,1000
264141,27:40.8,IMU,211965180,0,-0.002916364,0.004649848,0.005119945,-4.655704,1.52701,-8.514967,0,0,35.06995,1,1,1000,1000
264195,27:40.8,IMU,212005164,0,-0.002642096,0.005062687,0.004979199,-4.656172,1.526103,-8.510933,0,0,35.07127,1,1,1000,1000
264295,27:40.9,IMU,212045148,0,-0.001553393,0.003800625,0.004783486,-4.657633,1.526395,-8.51091,0,0,35.0726,1,1,999,999
264347,27:40.9,IMU,212085132,0,-0.001284558,0.003627216,0.0046027,-4.658232,1.528422,-8.507505,0,0,35.07392,1,1,999,999
264401,27:40.9,IMU,212125116,0,-0.001482817,0.003886115,0.004473493,-4.658463,1.529179,-8.507923,0,0,35.07524,1,1,999,999
264500,27:41.0,IMU,212165100,0,-0.001866079,0.005129413,0.004346923,-4.658465,1.529835,-8.505814,0,0,35.07657,1,1,999,999
264554,27:41.0,IMU,212205084,0,-0.003239165,0.005470414,0.004331457,-4.65891,1.530011,-8.508258,0,0,35.07789,1,1,999,999
264652,27:41.1,IMU,212245068,0,-0.003926334,0.005894282,0.004387972,-4.659509,1.531972,-8.507718,0,0,35.07921,1,1,999,999
264704,27:41.1,IMU,212285052,0,-0.00353235,0.006836204,0.004335155,-4.659721,1.531366,-8.508108,0,0,35.08057,1,1,999,999
264756,27:41.1,IMU,212325036,0,-0.003482542,0.006158083,0.004291124,-4.659455,1.533498,-8.505134,0,0,35.08189,1,1,999,999
264855,27:41.2,IMU,212365020,0,-0.004524414,0.006611758,0.004376196,-4.660854,1.534075,-8.506604,0,0,35.08321,1,1,999,999
264909,27:41.2,IMU,212405004,0,-0.004617607,0.007340985,0.004340296,-4.65942,1.53554,-8.505644,0,0,35.08453,1,1,999,999
265009,27:41.3,IMU,212444988,0,-0.004398254,0.006357367,0.004352345,-4.658693,1.535369,-8.503478,0,0,35.08582,1,1,999,999
265064,27:41.3,IMU,212484972,0,-0.002239533,0.006094993,0.004307662,-4.661842,1.537686,-8.503553,0,0,35.08715,1,1,999,999
265116,27:41.3,IMU,212524956,0,-0.000102334,0.006382343,0.004170521,-4.660048,1.537776,-8.503508,0,0,35.08847,1,1,999,999
265217,27:41.4,IMU,212564940,0,-0.000244523,0.006609422,0.0041963,-4.660542,1.53968,-8.504032,0,0,35.08979,1,1,999,999
265273,27:41.4,IMU,212604924,0,-0.000634262,0.006316449,0.004177673,-4.660665,1.540686,-8.503201,0,0,35.09111,1,1,999,999
265372,27:41.5,IMU,212644908,0,-0.000544289,0.006126115,0.004139557,-4.659358,1.542077,-8.504198,0,0,35.09243,1,1,999,999
265423,27:41.5,IMU,212684892,0,-0.000879768,0.005173738,0.004244506,-4.661852,1.542248,-8.503569,0,0,35.09375,1,1,999,999
265475,27:41.5,IMU,212724876,0,-0.001032683,0.004966885,0.004259314,-4.659276,1.542281,-8.501616,0,0,35.09507,1,1,999,999
265575,27:41.6,IMU,212764860,0,-0.002068066,0.004040753,0.004295851,-4.660853,1.544499,-8.504515,0,0,35.09639,1,1,999,999
265629,27:41.6,IMU,212804844,0,-0.003460553,0.003339348,0.004276786,-4.659936,1.547,-8.502281,0,0,35.09771,1,1,999,999
265727,27:41.7,IMU,212844828,0,-0.002883737,0.003350631,0.004229939,-4.659283,1.547222,-8.501822,0,0,35.09904,1,1,999,999
265778,27:41.7,IMU,212884812,0,-0.001295007,0.003100263,0.004014236,-4.65928,1.550118,-8.501923,0,0,35.10036,1,1,999,999
265831,27:41.7,IMU,212924796,0,0.000538038,0.003004052,0.003893689,-4.659454,1.54959,-8.502429,0,0,35.10168,1,1,999,999
265931,27:41.8,IMU,212964780,0,0.000548707,0.002858887,0.003857874,-4.659715,1.550798,-8.499864,0,0,35.103,1,1,999,999
265985,27:41.8,IMU,213004764,0,0.000828403,0.002410139,0.003870599,-4.658215,1.552204,-8.502991,0,0,35.10431,1,1,999,999
266087,27:41.9,IMU,213044748,0,0.003684363,0.002020509,0.003573474,-4.658349,1.554879,-8.499707,0,0,35.10563,1,1,1000,1000
266138,27:41.9,IMU,213084732,0,0.003396676,0.002526576,0.003556987,-4.658461,1.556113,-8.503907,0,0,35.10695,1,1,1000,1000
266192,27:41.9,IMU,213124716,0,0.005637009,0.001442331,0.003282305,-4.658179,1.556924,-8.499594,0,0,35.10827,1,1,1000,1000
266292,27:42.0,IMU,213164700,0,0.002666545,0.001997054,0.00345146,-4.656695,1.55997,-8.502508,0,0,35.10959,1,1,1000,1000
266346,27:42.0,IMU,213204684,0,0.002857126,0.001563815,0.003366779,-4.658163,1.56027,-8.504082,0,0,35.11091,1,1,1000,1000
266444,27:42.1,IMU,213244668,0,0.002447196,0.00220149,0.003207243,-4.657306,1.56086,-8.502371,0,0,35.11223,1,1,1000,1000
266496,27:42.1,IMU,213284652,0,0.002684848,0.002094525,0.003109794,-4.656448,1.562369,-8.501957,0,0,35.11354,1,1,1000,1000
266548,27:42.1,IMU,213324636,0,0.001997962,0.002097866,0.003065474,-4.656931,1.565175,-8.501425,0,0,35.11486,1,1,1000,1000
266647,27:42.2,IMU,213364620,0,0.001435404,0.001948544,0.003030016,-4.656724,1.566245,-8.499757,0,0,35.11618,1,1,1000,1000
266701,27:42.2,IMU,213404604,0,0.001797912,0.003148989,0.0030343,-4.656356,1.567113,-8.502007,0,0,35.1175,1,1,1000,1000
266801,27:42.3,IMU,213444588,0,0.002015305,0.003061794,0.003012832,-4.654937,1.567784,-8.500019,0,0,35.11882,1,1,1000,1000
266855,27:42.3,IMU,213485405,0,0.001287718,0.003433828,0.003001826,-4.655672,1.56915,-8.500763,0,0,35.12017,1,1,1000,1000
266907,27:42.3,IMU,213525389,0,0.001756535,0.00399664,0.002956289,-4.654702,1.570968,-8.499684,0,0,35.12148,1,1,1000,1000
267008,27:42.4,IMU,213565373,0,0.002296979,0.004003814,0.002807046,-4.65527,1.572006,-8.503797,0,0,35.1228,1,1,1000,1000
267063,27:42.4,IMU,213605357,0,0.002150247,0.004270826,0.002816031,-4.654624,1.574443,-8.498991,0,0,35.12412,1,1,1000,1000
267163,27:42.5,IMU,213645341,0,0.004162204,0.003885553,0.002471439,-4.653183,1.574895,-8.500919,0,0,35.12543,1,1,1000,1000
267214,27:42.5,IMU,213685325,0,0.00459739,0.003852907,0.002437546,-4.65482,1.57555,-8.499081,0,0,35.12675,1,1,1000,1000
267266,27:42.5,IMU,213725309,0,0.005051507,0.004610741,0.002401248,-4.654006,1.577095,-8.500541,0,0,35.12807,1,1,1000,1000
267366,27:42.6,IMU,213765293,0,0.005107107,0.004609078,0.002474388,-4.653815,1.578776,-8.499628,0,0,35.12938,1,1,1000,1000
267420,27:42.6,IMU,213805277,0,0.003960009,0.004560013,0.002560153,-4.65314,1.577711,-8.499369,0,0,35.1307,1,1,1000,1000
267518,27:42.7,IMU,213845261,0,0.005638951,0.004575003,0.002556669,-4.654062,1.579977,-8.501785,0,0,35.13202,1,1,1000,1000
267569,27:42.7,IMU,213885245,0,0.006953564,0.003455734,0.002490932,-4.652916,1.581949,-8.50031,0,0,35.13333,1,1,1000,1000
267622,27:42.7,IMU,213925229,0,0.004931504,0.003472437,0.002586157,-4.652081,1.582198,-8.498396,0,0,35.13461,1,1,1000,1000
267722,27:42.8,IMU,213965213,0,0.004150094,0.002216239,0.002479192,-4.652412,1.581769,-8.498841,0,0,35.13593,1,1,1000,1000
267776,27:42.8,IMU,214005197,0,0.001309196,0.002385044,0.002566139,-4.653187,1.584651,-8.501072,0,0,35.13725,1,1,1000,1000
267876,27:42.9,IMU,214045181,0,0.003139417,0.002026834,0.002397083,-4.653735,1.584856,-8.499971,0,0,35.13856,1,1,999,999
267927,27:42.9,IMU,214085165,0,0.002466606,0.002052543,0.002514203,-4.653111,1.585817,-8.499681,0,0,35.13987,1,1,999,999
267980,27:42.9,IMU,214125149,0,0.00219103,0.001538823,0.002612573,-4.652877,1.586423,-8.498295,0,0,35.14119,1,1,999,999
268081,27:43.0,IMU,214165133,0,0.003915015,0.001192739,0.002675379,-4.65085,1.586203,-8.499701,0,0,35.1425,1,1,999,999
268135,27:43.0,IMU,214205117,0,0.002428153,0.001100046,0.003050335,-4.653553,1.589131,-8.50522,0,0,35.14382,1,1,999,999
268233,27:43.1,IMU,214245101,0,0.005744063,0.001101841,0.003134414,-4.65172,1.588255,-8.49625,0,0,35.14513,1,1,999,999
268285,27:43.1,IMU,214285085,0,0.005324733,0.002143165,0.003206952,-4.651775,1.589746,-8.498171,0,0,35.14645,1,1,999,999
268337,27:43.1,IMU,214325069,0,0.003155288,0.003557044,0.003455225,-4.652745,1.590829,-8.49859,0,0,35.14776,1,1,999,999
268436,27:43.2,IMU,214365053,0,0.003331696,0.003925496,0.003422518,-4.651947,1.590776,-8.497386,0,0,35.14911,1,1,999,999
268490,27:43.2,IMU,214405037,0,0.002589996,0.003856672,0.003413943,-4.651701,1.591517,-8.496635,0,0,35.15042,1,1,999,999
268590,27:43.3,IMU,214445021,0,0.001234192,0.004004019,0.003404795,-4.650956,1.591447,-8.494129,0,0,35.15173,1,1,999,999
268644,27:43.3,IMU,214485005,0,0.001635401,0.00384414,0.00337771,-4.651461,1.593387,-8.497543,0,0,35.15305,1,1,999,999
268696,27:43.3,IMU,214524989,0,0.002009591,0.003320502,0.00343209,-4.651776,1.593778,-8.500177,0,0,35.15433,1,1,999,999
268797,27:43.4,IMU,214564973,0,0.000947935,0.003315579,0.003416208,-4.651547,1.594742,-8.497143,0,0,35.15564,1,1,999,999
268852,27:43.4,IMU,214604957,0,0.000270141,0.003717365,0.003366129,-4.651759,1.595541,-8.497413,0,0,35.15695,1,1,999,999
268951,27:43.5,IMU,214644941,0,0.001852385,0.004619055,0.003275128,-4.651834,1.595666,-8.497016,0,0,35.15826,1,1,999,999
269003,27:43.5,IMU,214684925,0,0.001517194,0.004973505,0.003331023,-4.650799,1.595826,-8.494776,0,0,35.15958,1,1,999,999
269055,27:43.5,IMU,214724909,0,0.003184763,0.00415537,0.003155362,-4.651707,1.597567,-8.496864,0,0,35.16089,1,1,999,999
269155,27:43.6,IMU,214764893,0,0.00097029,0.005325689,0.003443444,-4.650963,1.596582,-8.501917,0,0,35.1622,1,1,999,999
269209,27:43.6,IMU,214804877,0,0.000968166,0.005470821,0.003653093,-4.652268,1.597335,-8.497581,0,0,35.16351,1,1,999,999
269307,27:43.7,IMU,214844861,0,0.000982163,0.005694171,0.003730863,-4.651328,1.598059,-8.496839,0,0,35.16482,1,1,999,999
269358,27:43.7,IMU,214884845,0,0.002271754,0.0048047,0.003725592,-4.651838,1.598108,-8.494287,0,0,35.16613,1,1,999,999
269411,27:43.7,IMU,214924829,0,0.001136628,0.004421367,0.003702389,-4.650879,1.599381,-8.498228,0,0,35.16744,1,1,999,999
269511,27:43.8,IMU,214964813,0,0.000857007,0.002864832,0.003500267,-4.650659,1.600142,-8.497892,0,0,35.16875,1,1,999,999
269565,27:43.8,IMU,215004797,0,0.001046814,0.002350177,0.003368664,-4.650408,1.599919,-8.495528,0,0,35.17007,1,1,999,999
269665,27:43.9,IMU,215044781,0,0.000416606,0.002030395,0.00323345,-4.651079,1.599751,-8.494995,0,0,35.17138,1,1,1000,1000
269716,27:43.9,IMU,215084765,0,0.002213092,0.00308404,0.003100364,-4.651565,1.60145,-8.501093,0,0,35.17269,1,1,1000,1000
269769,27:43.9,IMU,215124749,0,0.000954799,0.003775188,0.003068193,-4.651126,1.603189,-8.50524,0,0,35.174,1,1,1000,1000
269869,27:44.0,IMU,215164733,0,0.000164739,0.004401467,0.00311289,-4.650233,1.601737,-8.48936,0,0,35.17531,1,1,1000,1000
269924,27:44.0,IMU,215204717,0,-0.00025154,0.005548614,0.003255541,-4.64958,1.602738,-8.496262,0,0,35.17662,1,1,1000,1000
270023,27:44.1,IMU,215244701,0,0.000857587,0.005258195,0.003279184,-4.65001,1.603162,-8.496067,0,0,35.17793,1,1,1000,1000
270074,27:44.1,IMU,215284685,0,0.001986703,0.004485835,0.003243169,-4.64904,1.603697,-8.494498,0,0,35.17924,1,1,1000,1000
270126,27:44.1,IMU,215324669,0,0.00139524,0.002170662,0.003488232,-4.650462,1.604323,-8.499143,0,0,35.18055,1,1,1000,1000
270225,27:44.2,IMU,215364653,0,0.001644097,0.002535485,0.003710848,-4.650382,1.605352,-8.499327,0,0,35.18185,1,1,1000,1000
270279,27:44.2,IMU,215404637,0,0.001810333,0.001972066,0.003951221,-4.64953,1.604851,-8.498578,0,0,35.18316,1,1,1000,1000
270381,27:44.3,IMU,215444621,0,0.001191942,0.002063058,0.004129144,-4.650429,1.604448,-8.492907,0,0,35.18447,1,1,1000,1000
270438,27:44.3,IMU,215484605,0,0.001772604,0.003422965,0.004155396,-4.650249,1.606662,-8.494679,0,0,35.18578,1,1,1000,1000
270490,27:44.3,IMU,215524589,0,0.000827949,0.003036019,0.003818954,-4.648446,1.607275,-8.496595,0,0,35.18709,1,1,1000,1000
270591,27:44.4,IMU,215565406,0,-0.000382103,0.003027033,0.003480121,-4.648075,1.606107,-8.49665,0,0,35.18843,1,1,1000,1000
270646,27:44.4,IMU,215605390,0,-0.000617976,0.00301515,0.003222968,-4.648767,1.608056,-8.498675,0,0,35.18974,1,1,1000,1000
270744,27:44.5,IMU,215645374,0,9.912949e-05,0.004158663,0.003145227,-4.648677,1.608011,-8.497627,0,0,35.19105,1,1,1000,1000
270797,27:44.5,IMU,215685358,0,7.63218e-05,0.004900116,0.003357324,-4.648297,1.608707,-8.496249,0,0,35.19235,1,1,1000,1000
270849,27:44.5,IMU,215725342,0,0.000529316,0.005926841,0.003704193,-4.648703,1.609541,-8.497503,0,0,35.19366,1,1,1000,1000
270949,27:44.6,IMU,215765326,0,0.000828479,0.006307282,0.003897944,-4.648835,1.609207,-8.49854,0,0,35.19497,1,1,1000,1000
271003,27:44.6,IMU,215805310,0,0.001113195,0.006012125,0.004128078,-4.648274,1.611069,-8.498246,0,0,35.19628,1,1,1000,1000
271101,27:44.7,IMU,215845294,0,-0.000402356,0.005468909,0.004321118,-4.648895,1.611141,-8.497177,0,0,35.19758,1,1,1000,1000
271152,27:44.7,IMU,215885278,0,0.000125187,0.005744294,0.00442553,-4.650119,1.610523,-8.499019,0,0,35.19889,1,1,1000,1000
271205,27:44.7,IMU,215925262,0,-0.000972218,0.005362958,0.00439285,-4.647976,1.611017,-8.489553,0,0,35.2002,1,1,1000,1000
271305,27:44.8,IMU,215965246,0,-0.001679722,0.004104662,0.004179412,-4.648086,1.613012,-8.493671,0,0,35.2015,1,1,1000,1000
271359,27:44.8,IMU,216005230,0,-0.001489297,0.005260784,0.00382188,-4.647723,1.612597,-8.499186,0,0,35.20278,1,1,1000,1000
271459,27:44.9,IMU,216045214,0,-0.00110261,0.004900018,0.003561632,-4.648861,1.613485,-8.497417,0,0,35.20409,1,1,1000,1000
271510,27:44.9,IMU,216085198,0,-0.001348979,0.004696456,0.00337424,-4.648759,1.613884,-8.497384,0,0,35.20539,1,1,1000,1000
271563,27:44.9,IMU,216125182,0,-0.001705487,0.004445748,0.003143733,-4.646505,1.614846,-8.496869,0,0,35.2067,1,1,1000,1000
271663,27:45.0,IMU,216165166,0,-0.001491031,0.004345295,0.002848192,-4.647364,1.614802,-8.497871,0,0,35.208,1,1,1000,1000
271718,27:45.0,IMU,216205150,0,0.000205209,0.002875527,0.002848034,-4.646821,1.615417,-8.491728,0,0,35.2093,1,1,1000,1000
271817,27:45.1,IMU,216245134,0,-0.000108406,0.004723972,0.00328271,-4.647086,1.615827,-8.491503,0,0,35.21061,1,1,1000,1000
271868,27:45.1,IMU,216285118,0,-0.005511646,0.05597324,0.005205776,-4.652353,1.614296,-8.503061,0,0,35.21192,1,1,1000,1000
271920,27:45.1,IMU,216325102,0,-0.01363848,0.09998517,0.007757011,-4.663368,1.615228,-8.505399,0,0,35.21322,1,1,1000,1000
272019,27:45.2,IMU,216365086,0,-0.01862887,0.1370552,0.01051476,-4.678553,1.614309,-8.515433,0,0,35.21453,1,1,1000,1000
272073,27:45.2,IMU,216405070,0,-0.02439222,0.1677986,0.01347547,-4.698173,1.613264,-8.517519,0,0,35.21583,1,1,1000,1000
272173,27:45.3,IMU,216445054,0,-0.02567918,0.1917589,0.01654942,-4.717946,1.611689,-8.522117,0,0,35.21717,1,1,1000,1000
272227,27:45.3,IMU,216485038,0,-0.02391795,0.2081786,0.01962525,-4.734611,1.610702,-8.516254,0,0,35.21848,1,1,1000,1000
272279,27:45.3,IMU,216525022,0,-0.02323969,0.2163765,0.02245267,-4.750618,1.611539,-8.513367,0,0,35.21978,1,1,1000,1000
272380,27:45.4,IMU,216565006,0,-0.02230766,0.2190221,0.02494567,-4.762363,1.610739,-8.5088,0,0,35.22108,1,1,1000,1000
272435,27:45.4,IMU,216604990,0,-0.01989618,0.218689,0.02692507,-4.771965,1.612078,-8.504421,0,0,35.22235,1,1,1000,1000
272533,27:45.5,IMU,216644974,0,-0.01722205,0.2164959,0.02846244,-4.774919,1.614767,-8.501023,0,0,35.22366,1,1,1000,1000
272585,27:45.5,IMU,216684958,0,-0.01463114,0.2139108,0.02947549,-4.775989,1.617322,-8.500595,0,0,35.22496,1,1,1000,1000
272638,27:45.5,IMU,216724942,0,-0.0123883,0.2083906,0.02989822,-4.775553,1.623188,-8.503273,0,0,35.22626,1,1,1000,1000
272738,27:45.6,IMU,216764926,0,-0.01032676,0.2032023,0.03000027,-4.767366,1.627677,-8.505688,0,0,35.22757,1,1,1000,1000
272792,27:45.6,IMU,216804910,0,-0.007777495,0.1973133,0.02970637,-4.758796,1.632808,-8.51067,0,0,35.22887,1,1,1000,1000
272890,27:45.7,IMU,216844894,0,-0.006213311,0.1921867,0.02906677,-4.746825,1.63861,-8.517267,0,0,35.23017,1,1,1000,1000
272941,27:45.7,IMU,216884878,0,-0.004471986,0.1883578,0.02824175,-4.731537,1.643209,-8.524603,0,0,35.23148,1,1,1000,1000
272995,27:45.7,IMU,216924862,0,-0.002250527,0.1836856,0.02715259,-4.71402,1.649396,-8.53461,0,0,35.23278,1,1,1000,1000
273095,27:45.8,IMU,216964846,0,0.001425092,0.1784061,0.02586149,-4.693578,1.654188,-8.546228,0,0,35.23408,1,1,1000,1000
273149,27:45.8,IMU,217004830,0,-7.8e-05,0.1736594,0.02465555,-4.671118,1.660876,-8.559178,0,0,35.23538,1,1,1000,1000
273249,27:45.9,IMU,217044814,0,0.001834392,0.1687542,0.02326579,-4.648307,1.666351,-8.571729,0,0,35.23668,1,1,999,999
273300,27:45.9,IMU,217084798,0,0.003884409,0.1681498,0.0220091,-4.622777,1.672545,-8.588361,0,0,35.23798,1,1,999,999
273353,27:45.9,IMU,217124782,0,0.004758589,0.1657879,0.02091824,-4.596212,1.678534,-8.606866,0,0,35.23928,1,1,999,999
273453,27:46.0,IMU,217164766,0,0.005465079,0.1620677,0.01987087,-4.569172,1.682312,-8.622103,0,0,35.24059,1,1,999,999
273507,27:46.0,IMU,217204750,0,0.006902164,0.1599045,0.01899474,-4.540228,1.68716,-8.642746,0,0,35.24189,1,1,999,999
273607,27:46.1,IMU,217244734,0,0.006443219,0.156137,0.01819731,-4.508428,1.693293,-8.655272,0,0,35.24319,1,1,999,999
273658,27:46.1,IMU,217284718,0,0.007927223,0.1539997,0.01738877,-4.47476,1.698059,-8.670135,0,0,35.24449,1,1,999,999
273710,27:46.1,IMU,217324702,0,0.008550449,0.1568348,0.01709503,-4.441381,1.703016,-8.691692,0,0,35.24579,1,1,999,999
273809,27:46.2,IMU,217364686,0,0.008490442,0.1550565,0.01664909,-4.409356,1.706511,-8.714434,0,0,35.24709,1,1,999,999
273863,27:46.2,IMU,217404670,0,0.009754414,0.1536241,0.0162032,-4.374616,1.712047,-8.729469,0,0,35.24839,1,1,999,999
273963,27:46.3,IMU,217444654,0,0.009479107,0.1555815,0.01614884,-4.339109,1.717266,-8.756825,0,0,35.24969,1,1,999,999
274017,27:46.3,IMU,217484638,0,0.01088917,0.1569074,0.01577142,-4.301631,1.721492,-8.776686,0,0,35.25099,1,1,999,999
274069,27:46.3,IMU,217524622,0,0.01148859,0.1567589,0.015826,-4.266321,1.727176,-8.792994,0,0,35.25229,1,1,999,999
274170,27:46.4,IMU,217564606,0,0.01087738,0.1495025,0.01540575,-4.228371,1.729965,-8.820679,0,0,35.25359,1,1,999,999
274224,27:46.4,IMU,217604590,0,0.01280166,0.1448702,0.01527767,-4.188241,1.733974,-8.828994,0,0,35.25489,1,1,999,999
274322,27:46.5,IMU,217645407,0,0.0116346,0.1355482,0.0149616,-4.148789,1.739922,-8.868903,0,0,35.25622,1,1,999,999
274374,27:46.5,IMU,217685391,0,0.01774995,0.1333191,0.01440395,-4.10597,1.742998,-8.874669,0,0,35.25752,1,1,999,999
274426,27:46.5,IMU,217725375,0,0.02083894,0.1249915,0.01402801,-4.066594,1.747497,-8.902262,0,0,35.25882,1,1,999,999
274527,27:46.6,IMU,217765359,0,0.02935014,0.1168748,0.0131717,-4.021375,1.751956,-8.912164,0,0,35.26012,1,1,999,999
274581,27:46.6,IMU,217805343,0,0.04097745,0.113083,0.01258589,-3.98056,1.75605,-8.938054,0,0,35.26142,1,1,999,999
274679,27:46.7,IMU,217845327,0,0.05120379,0.1109308,0.01240553,-3.93575,1.760132,-8.9553,0,0,35.26272,1,1,999,999
274730,27:46.7,IMU,217885311,0,0.06040621,0.1170034,0.01289463,-3.893855,1.765319,-8.973516,0,0,35.26402,1,1,999,999
274829,27:46.7,IMU,217925295,0,0.06985705,0.119716,0.01404189,-3.852135,1.770441,-9.005051,0,0,35.26531,1,1,999,999
274929,27:46.8,IMU,217965279,0,0.07903384,0.1213016,0.01593261,-3.809006,1.773999,-9.021712,0,0,35.26661,1,1,999,999
274983,27:46.8,IMU,218005263,0,0.08197928,0.1222316,0.01884105,-3.76705,1.778261,-9.040549,0,0,35.26791,1,1,999,999
275085,27:46.9,IMU,218045247,0,0.0885017,0.1281454,0.02242924,-3.722082,1.782753,-9.055794,0,0,35.2692,1,1,1000,1000
275136,27:46.9,IMU,218085231,0,0.09138309,0.1336837,0.0264619,-3.68057,1.788048,-9.077001,0,0,35.27047,1,1,1000,1000
275190,27:46.9,IMU,218125215,0,0.09505439,0.1318951,0.03133411,-3.635879,1.79144,-9.097856,0,0,35.27177,1,1,1000,1000
275289,27:47.0,IMU,218165199,0,0.09926928,0.1386734,0.03701348,-3.590248,1.797159,-9.117608,0,0,35.27306,1,1,1000,1000
275344,27:47.0,IMU,218205183,0,0.09895637,0.1378958,0.04317621,-3.54379,1.8001,-9.132907,0,0,35.27436,1,1,1000,1000
275443,27:47.1,IMU,218245167,0,0.09906367,0.1432584,0.04992748,-3.49803,1.805244,-9.166188,0,0,35.27566,1,1,1000,1000
275494,27:47.1,IMU,218285151,0,0.1030475,0.1490529,0.05716791,-3.449183,1.810649,-9.179096,0,0,35.27695,1,1,1000,1000
275546,27:47.1,IMU,218325135,0,0.1015444,0.153626,0.06492983,-3.400565,1.814929,-9.197009,0,0,35.27825,1,1,1000,1000
275645,27:47.2,IMU,218365119,0,0.1023185,0.1541002,0.07300459,-3.350748,1.819083,-9.217043,0,0,35.27955,1,1,1000,1000
275699,27:47.2,IMU,218405103,0,0.1029721,0.1568603,0.08155112,-3.298923,1.82502,-9.239767,0,0,35.28084,1,1,1000,1000
275799,27:47.3,IMU,218445087,0,0.1024374,0.1578788,0.09055866,-3.247347,1.830705,-9.26391,0,0,35.28214,1,1,1000,1000
275853,27:47.3,IMU,218485071,0,0.1015403,0.1631989,0.1002143,-3.192827,1.83665,-9.283248,0,0,35.28343,1,1,1000,1000
275905,27:47.3,IMU,218525055,0,0.1026288,0.1671424,0.1100783,-3.137694,1.8416,-9.304564,0,0,35.28476,1,1,1000,1000
276006,27:47.4,IMU,218565039,0,0.1018183,0.1701985,0.1205999,-3.080706,1.849152,-9.327977,0,0,35.28606,1,1,1000,1000
276061,27:47.4,IMU,218605023,0,0.1038504,0.170568,0.1314536,-3.022646,1.854328,-9.348961,0,0,35.28735,1,1,1000,1000
276159,27:47.5,IMU,218645007,0,0.1061678,0.1727816,0.1430407,-2.963653,1.861997,-9.368706,0,0,35.28865,1,1,1000,1000
276210,27:47.5,IMU,218684991,0,0.1072604,0.1777625,0.1552344,-2.901902,1.869106,-9.390422,0,0,35.28991,1,1,1000,1000
276263,27:47.5,IMU,218724975,0,0.1098132,0.1796739,0.1680833,-2.839249,1.878461,-9.418201,0,0,35.29121,1,1,1000,1000
276364,27:47.6,IMU,218764959,0,0.1113033,0.181208,0.1818289,-2.77519,1.887303,-9.440399,0,0,35.2925,1,1,1000,1000
276418,27:47.6,IMU,218804943,0,0.1142136,0.1825382,0.1963983,-2.709173,1.895497,-9.462357,0,0,35.29379,1,1,1000,1000
276516,27:47.7,IMU,218844927,0,0.1166964,0.1851297,0.2120871,-2.641705,1.90597,-9.49094,0,0,35.29509,1,1,1000,1000
276567,27:47.7,IMU,218884911,0,0.1188674,0.1884323,0.228867,-2.570779,1.91449,-9.51168,0,0,35.29638,1,1,1000,1000
276619,27:47.7,IMU,218924895,0,0.1217375,0.1909552,0.2470065,-2.498773,1.925992,-9.534687,0,0,35.29768,1,1,1000,1000
276719,27:47.8,IMU,218964879,0,0.1245247,0.1916649,0.2664395,-2.425599,1.936638,-9.560459,0,0,35.29897,1,1,1000,1000
276773,27:47.8,IMU,219004863,0,0.1266968,0.191778,0.2872704,-2.349466,1.948663,-9.58428,0,0,35.30026,1,1,1000,1000
276873,27:47.9,IMU,219044847,0,0.1293128,0.1932164,0.3098406,-2.271083,1.961427,-9.604621,0,0,35.30156,1,1,999,999
276924,27:47.9,IMU,219084831,0,0.1329312,0.1955263,0.3341116,-2.191918,1.973546,-9.62951,0,0,35.30285,1,1,999,999
276977,27:47.9,IMU,219124815,0,0.1366491,0.196372,0.3603481,-2.10979,1.985952,-9.65228,0,0,35.30414,1,1,999,999
277076,27:48.0,IMU,219164799,0,0.139765,0.1962361,0.3887978,-2.026347,1.999602,-9.676209,0,0,35.30544,1,1,999,999
277131,27:48.0,IMU,219204783,0,0.1427406,0.1939398,0.4196243,-1.938113,2.013075,-9.698986,0,0,35.30672,1,1,999,999
277230,27:48.1,IMU,219244767,0,0.1456995,0.1922657,0.4530185,-1.849101,2.027354,-9.721264,0,0,35.30802,1,1,999,999
277282,27:48.1,IMU,219284751,0,0.1487631,0.1884691,0.4891515,-1.755921,2.041963,-9.74704,0,0,35.30931,1,1,999,999
277334,27:48.1,IMU,219324735,0,0.1510289,0.1786233,0.5282317,-1.66206,2.056942,-9.771288,0,0,35.3106,1,1,999,999
277433,27:48.2,IMU,219364719,0,0.1541176,0.1646246,0.570532,-1.565734,2.07041,-9.793822,0,0,35.31189,1,1,999,999
277487,27:48.2,IMU,219404703,0,0.1529699,0.1471591,0.616024,-1.465265,2.083689,-9.819468,0,0,35.31319,1,1,999,999
277587,27:48.3,IMU,219444687,0,0.1516332,0.13092,0.6649795,-1.36498,2.097331,-9.840637,0,0,35.31448,1,1,999,999
277643,27:48.3,IMU,219484671,0,0.1504384,0.1150346,0.717194,-1.26231,2.10796,-9.862233,0,0,35.31577,1,1,999,999
277695,27:48.3,IMU,219524655,0,0.1498041,0.0994311,0.7724532,-1.159279,2.118481,-9.879505,0,0,35.31706,1,1,999,999
277796,27:48.4,IMU,219564639,0,0.1479051,0.08349961,0.8300155,-1.052636,2.128863,-9.900438,0,0,35.31835,1,1,999,999
277850,27:48.4,IMU,219604623,0,0.1466254,0.06809361,0.8863921,-0.9481363,2.135956,-9.915223,0,0,35.31964,1,1,999,999
277948,27:48.5,IMU,219644607,0,0.1477797,0.0576669,0.938965,-0.844812,2.141694,-9.935332,0,0,35.32093,1,1,999,999
277999,27:48.5,IMU,219684591,0,0.1446764,0.04730203,0.9868275,-0.7416297,2.141923,-9.952456,0,0,35.32222,1,1,999,999
278052,27:48.5,IMU,219725408,0,0.1446578,0.03326744,1.030716,-0.6387047,2.136986,-9.964355,0,0,35.32355,1,1,999,999
278152,27:48.6,IMU,219765392,0,0.1408937,0.02104506,1.067354,-0.5418442,2.125538,-9.977701,0,0,35.32484,1,1,999,999
278207,27:48.6,IMU,219805376,0,0.1388818,0.006254756,1.096544,-0.4498211,2.108711,-9.991454,0,0,35.32613,1,1,999,999
278305,27:48.7,IMU,219845360,0,0.1398939,-0.007525134,1.118641,-0.3599188,2.084371,-10.00544,0,0,35.32742,1,1,999,999
278356,27:48.7,IMU,219885344,0,0.1404788,-0.02183028,1.134093,-0.2786716,2.051643,-10.01917,0,0,35.3287,1,1,999,999
278411,27:48.7,IMU,219925328,0,0.1398253,-0.03726233,1.143799,-0.2022656,2.012623,-10.02797,0,0,35.32999,1,1,999,999
278510,27:48.8,IMU,219965312,0,0.1385982,-0.05391599,1.148396,-0.131673,1.966641,-10.03965,0,0,35.33128,1,1,999,999
278565,27:48.8,IMU,220005296,0,0.136032,-0.07028999,1.149043,-0.06699373,1.913502,-10.05034,0,0,35.33257,1,1,999,999
278665,27:48.9,IMU,220045280,0,0.1335464,-0.08572067,1.146618,-0.009269288,1.855154,-10.06089,0,0,35.33386,1,1,1000,1000
278716,27:48.9,IMU,220085264,0,0.1338675,-0.1008874,1.141587,0.04476722,1.791817,-10.07387,0,0,35.33515,1,1,1000,1000
278769,27:48.9,IMU,220125248,0,0.1322492,-0.1159404,1.134814,0.0985956,1.723955,-10.0839,0,0,35.33644,1,1,1000,1000
278868,27:49.0,IMU,220165232,0,0.1298702,-0.1305016,1.127118,0.1509072,1.653215,-10.08993,0,0,35.3377,1,1,1000,1000
278923,27:49.0,IMU,220205216,0,0.1248037,-0.1467324,1.118247,0.2024285,1.578415,-10.09462,0,0,35.33898,1,1,1000,1000
279021,27:49.1,IMU,220245200,0,0.1237502,-0.158348,1.109553,0.250891,1.50229,-10.11337,0,0,35.34027,1,1,1000,1000
279072,27:49.1,IMU,220285184,0,0.1210689,-0.164884,1.100811,0.2960431,1.426237,-10.11807,0,0,35.34156,1,1,1000,1000
279125,27:49.1,IMU,220325168,0,0.1162251,-0.1736414,1.092468,0.3394461,1.348559,-10.11987,0,0,35.34285,1,1,1000,1000
279224,27:49.2,IMU,220365152,0,0.1082664,-0.1818397,1.084776,0.3795572,1.270557,-10.13806,0,0,35.34414,1,1,1000,1000
279278,27:49.2,IMU,220405136,0,0.1032148,-0.1881046,1.077932,0.4142656,1.196254,-10.14644,0,0,35.34542,1,1,1000,1000
279378,27:49.3,IMU,220445120,0,0.09472041,-0.1912897,1.071792,0.4460033,1.119449,-10.15082,0,0,35.34671,1,1,1000,1000
279432,27:49.3,IMU,220485104,0,0.08884665,-0.1918888,1.066615,0.4711727,1.045578,-10.16149,0,0,35.348,1,1,1000,1000
279484,27:49.3,IMU,220525088,0,0.08290094,-0.1881201,1.062308,0.4931689,0.9749978,-10.17081,0,0,35.34928,1,1,1000,1000
279586,27:49.4,IMU,220565072,0,0.07138327,-0.1774361,1.058893,0.5112597,0.9053149,-10.17825,0,0,35.35057,1,1,1000,1000
279640,27:49.4,IMU,220605056,0,0.05652196,-0.1661312,1.056035,0.5234284,0.8387204,-10.19189,0,0,35.35189,1,1,1000,1000
279738,27:49.5,IMU,220645040,0,0.04232787,-0.1503732,1.054019,0.5333186,0.7743816,-10.19382,0,0,35.35317,1,1,1000,1000
279789,27:49.5,IMU,220685024,0,0.03054333,-0.1359039,1.049588,0.5379703,0.7151772,-10.19515,0,0,35.35446,1,1,1000,1000
279842,27:49.5,IMU,220725008,0,0.02176183,-0.1215663,1.033294,0.5390924,0.6586887,-10.20201,0,0,35.35575,1,1,1000,1000
279942,27:49.6,IMU,220764992,0,0.01175065,-0.1109464,0.9995555,0.5373373,0.6062611,-10.20147,0,0,35.357,1,1,1000,1000
279997,27:49.6,IMU,220804976,0,0.001965789,-0.09591159,0.9483465,0.5303178,0.5587264,-10.20713,0,0,35.35828,1,1,1000,1000
280095,27:49.7,IMU,220844960,0,-0.004731952,-0.08680654,0.8817405,0.5189078,0.5138273,-10.20459,0,0,35.35957,1,1,1000,1000
280146,27:49.7,IMU,220884944,0,-0.009737953,-0.07980439,0.8040751,0.503634,0.4743562,-10.19957,0,0,35.36086,1,1,1000,1000
280198,27:49.7,IMU,220924928,0,-0.01526736,-0.07317425,0.7193366,0.4854154,0.4395874,-10.19648,0,0,35.36214,1,1,1000,1000
280297,27:49.8,IMU,220964912,0,-0.02034164,-0.06708847,0.631751,0.4640675,0.4086685,-10.19309,0,0,35.36343,1,1,1000,1000
280352,27:49.8,IMU,221004896,0,-0.02597514,-0.06056473,0.544586,0.4398847,0.3827605,-10.18477,0,0,35.36471,1,1,1000,1000
280452,27:49.9,IMU,221044880,0,-0.03055392,-0.05823772,0.4607875,0.4134043,0.3603677,-10.18198,0,0,35.366,1,1,1000,1000
280503,27:49.9,IMU,221084864,0,-0.03202249,-0.05629359,0.3829035,0.3864009,0.3407841,-10.16986,0,0,35.36728,1,1,1000,1000
280556,27:49.9,IMU,221124848,0,-0.03488225,-0.04981065,0.3122835,0.3583619,0.3249687,-10.16936,0,0,35.36856,1,1,1000,1000
280655,27:50.0,IMU,221164832,0,-0.03864563,-0.04678976,0.2498827,0.3304565,0.3102955,-10.16644,0,0,35.36985,1,1,1000,1000
280709,27:50.0,IMU,221204816,0,-0.04267706,-0.04330809,0.195872,0.3005253,0.297325,-10.15891,0,0,35.37113,1,1,1000,1000
280809,27:50.1,IMU,221244800,0,-0.04530056,-0.04109329,0.1504556,0.2701303,0.2869903,-10.15347,0,0,35.37242,1,1,1000,1000
280860,27:50.1,IMU,221284784,0,-0.04619094,-0.0391709,0.1133241,0.2421461,0.2764323,-10.14492,0,0,35.3737,1,1,1000,1000
280913,27:50.1,IMU,221324768,0,-0.04801618,-0.03733432,0.08373233,0.2126631,0.2688143,-10.13957,0,0,35.37498,1,1,1000,1000
281012,27:50.2,IMU,221364752,0,-0.0510355,-0.03411595,0.06091446,0.1840589,0.2616993,-10.13656,0,0,35.37627,1,1,1000,1000
281066,27:50.2,IMU,221404736,0,-0.05379592,-0.03117122,0.04401527,0.1565931,0.2552748,-10.12814,0,0,35.37755,1,1,1000,1000
281166,27:50.3,IMU,221444720,0,-0.05527724,-0.03363831,0.03212595,0.12879,0.2493441,-10.1254,0,0,35.37883,1,1,1000,1000
281220,27:50.3,IMU,221484704,0,-0.05628276,-0.03248977,0.0244168,0.1024304,0.2431286,-10.1186,0,0,35.38012,1,1,1000,1000
281272,27:50.3,IMU,221524688,0,-0.0577984,-0.02792222,0.01987867,0.07690351,0.2374467,-10.11465,0,0,35.3814,1,1,1000,1000
281373,27:50.4,IMU,221564672,0,-0.06021054,-0.0275851,0.01793499,0.05237065,0.2329559,-10.10867,0,0,35.38268,1,1,1000,1000
281427,27:50.4,IMU,221604656,0,-0.06287211,-0.02029761,0.01786144,0.02832879,0.2262708,-10.11005,0,0,35.38396,1,1,1000,1000
281525,27:50.5,IMU,221644640,0,-0.06433162,-0.0143408,0.01886711,0.003635741,0.2227175,-10.10625,0,0,35.38525,1,1,1000,1000
281576,27:50.5,IMU,221684624,0,-0.06638911,-0.007761036,0.02037401,-0.01914714,0.2195458,-10.09441,0,0,35.38653,1,1,1000,1000
281629,27:50.5,IMU,221724608,0,-0.06829897,-0.000514467,0.02197155,-0.04282182,0.2164555,-10.0998,0,0,35.38781,1,1,1000,1000
281729,27:50.6,IMU,221764592,0,-0.07053802,0.01302651,0.02344286,-0.06674869,0.2120439,-10.08849,0,0,35.38909,1,1,1000,1000
281783,27:50.6,IMU,221805409,0,-0.0708643,0.02754565,0.02454828,-0.09188304,0.2094278,-10.08453,0,0,35.3904,1,1,1000,1000
281882,27:50.7,IMU,221845393,0,-0.07124671,0.05094964,0.02528471,-0.117216,0.2070572,-10.06568,0,0,35.39169,1,1,1000,1000
281933,27:50.7,IMU,221885377,0,-0.07080095,0.06389381,0.0255434,-0.1413557,0.2049217,-10.0702,0,0,35.39297,1,1,1000,1000
281986,27:50.7,IMU,221925361,0,-0.07248599,0.07194392,0.02488723,-0.1653452,0.2045716,-10.05141,0,0,35.39425,1,1,1000,1000
282085,27:50.8,IMU,221965345,0,-0.07014563,0.07815447,0.0235147,-0.1905218,0.2030489,-10.0413,0,0,35.39553,1,1,1000,1000
282140,27:50.8,IMU,222005329,0,-0.0688097,0.07965168,0.02167695,-0.2142449,0.2017891,-10.02638,0,0,35.3968,1,1,1000,1000
282240,27:50.9,IMU,222045313,0,-0.05902347,0.08077716,0.01926276,-0.2391197,0.2014315,-10.01074,0,0,35.39809,1,1,1000,1000
282291,27:50.9,IMU,222085297,0,-0.0504669,0.07925344,0.01644108,-0.2633622,0.200336,-10.00047,0,0,35.39937,1,1,999,999
282344,27:50.9,IMU,222125281,0,-0.03487414,0.07482681,0.0134712,-0.2865695,0.201043,-9.994198,0,0,35.40065,1,1,999,999
282443,27:51.0,IMU,222165265,0,-0.02615198,0.07115768,0.01044839,-0.3097993,0.2008988,-9.984187,0,0,35.40193,1,1,999,999
282497,27:51.0,IMU,222205249,0,-0.0167601,0.06270792,0.007769919,-0.3324197,0.2032688,-9.964581,0,0,35.40321,1,1,999,999
282597,27:51.1,IMU,222245233,0,-0.007378918,0.05813604,0.005149289,-0.3548347,0.20239,-9.961268,0,0,35.40446,1,1,999,999
282648,27:51.1,IMU,222285217,0,0.000959475,0.04856365,0.002798968,-0.3771476,0.2040827,-9.956107,0,0,35.40574,1,1,999,999
282700,27:51.1,IMU,222325201,0,0.006914122,0.04680727,0.000896439,-0.4008942,0.203495,-9.94834,0,0,35.40701,1,1,999,999
282800,27:51.2,IMU,222365185,0,0.01018112,0.04659066,-0.000503601,-0.4241016,0.2041344,-9.940187,0,0,35.40829,1,1,999,999
282854,27:51.2,IMU,222405169,0,0.009556288,0.04747449,-0.001504499,-0.4456169,0.203989,-9.931768,0,0,35.40957,1,1,999,999
282954,27:51.3,IMU,222445153,0,0.009016648,0.04586887,-0.002227343,-0.4670399,0.2054839,-9.925415,0,0,35.41085,1,1,999,999
283009,27:51.3,IMU,222485137,0,0.01139534,0.04439422,-0.002613498,-0.4879703,0.2051413,-9.916428,0,0,35.41213,1,1,999,999
283061,27:51.3,IMU,222525121,0,0.01058989,0.04095257,-0.002873199,-0.5097722,0.2063139,-9.91325,0,0,35.41341,1,1,999,999
283163,27:51.4,IMU,222565105,0,0.009962681,0.04203631,-0.003008133,-0.5320605,0.2060918,-9.907406,0,0,35.41468,1,1,999,999
283217,27:51.4,IMU,222605089,0,0.009413264,0.04205474,-0.00285981,-0.5516419,0.204923,-9.897444,0,0,35.41596,1,1,999,999
283315,27:51.5,IMU,222645073,0,0.008910813,0.03842959,-0.002456274,-0.5719436,0.2057892,-9.892139,0,0,35.41724,1,1,999,999
283366,27:51.5,IMU,222685057,0,0.008431227,0.03805467,-0.00210058,-0.592196,0.206148,-9.88717,0,0,35.41855,1,1,999,999
283419,27:51.5,IMU,222725041,0,0.008026686,0.0449215,-0.001575742,-0.61295,0.2064252,-9.88497,0,0,35.41983,1,1,999,999
283519,27:51.6,IMU,222765025,0,0.007588748,0.04115575,-0.001244502,-0.6311274,0.2061771,-9.883398,0,0,35.4211,1,1,999,999
283573,27:51.6,IMU,222805009,0,0.007255242,0.03750233,-0.000721598,-0.6518329,0.2062025,-9.869938,0,0,35.42238,1,1,999,999
283672,27:51.7,IMU,222844993,0,0.006918663,0.03569028,4.72448e-05,-0.6700257,0.2064534,-9.866366,0,0,35.42363,1,1,999,999
283723,27:51.7,IMU,222884977,0,0.006640122,0.03546955,0.000918494,-0.6879423,0.2061321,-9.862079,0,0,35.4249,1,1,999,999
283776,27:51.7,IMU,222924961,0,0.006312666,0.0327518,0.001742766,-0.7064936,0.2070389,-9.859212,0,0,35.42618,1,1,999,999
283875,27:51.8,IMU,222964945,0,0.002300928,0.03031721,0.002476821,-0.7237417,0.2056628,-9.858135,0,0,35.42746,1,1,999,999
283930,27:51.8,IMU,223004929,0,0.000457295,0.02906677,0.003119566,-0.7416971,0.2054145,-9.849093,0,0,35.42873,1,1,999,999
284030,27:51.9,IMU,223044913,0,-0.00172816,0.02904557,0.003444618,-0.7599753,0.2058385,-9.847196,0,0,35.43001,1,1,999,999
284081,27:51.9,IMU,223084897,0,-0.003200601,0.03136079,0.003671652,-0.7755024,0.2054512,-9.842031,0,0,35.43129,1,1,1000,1000
284134,27:51.9,IMU,223124881,0,-0.001540937,0.03173004,0.003823669,-0.7922468,0.2059881,-9.834286,0,0,35.43256,1,1,1000,1000
284235,27:52.0,IMU,223164865,0,-0.001478519,0.03467719,0.003785511,-0.8086401,0.2063386,-9.833598,0,0,35.43384,1,1,1000,1000
284289,27:52.0,IMU,223204849,0,-0.001110171,0.03400258,0.003755561,-0.8251321,0.2067088,-9.827197,0,0,35.43511,1,1,1000,1000
284389,27:52.1,IMU,223244833,0,-0.000765931,0.03476722,0.003793047,-0.8403314,0.2060838,-9.829898,0,0,35.43639,1,1,1000,1000
284440,27:52.1,IMU,223284817,0,-0.00070527,0.03749146,0.00395249,-0.8553189,0.2058762,-9.828458,0,0,35.43766,1,1,1000,1000
284493,27:52.1,IMU,223324801,0,-0.004189624,0.03923176,0.003943142,-0.8699186,0.2054032,-9.822383,0,0,35.43894,1,1,1000,1000
284593,27:52.2,IMU,223364785,0,-0.007013639,0.0393776,0.004062222,-0.885288,0.2069463,-9.816219,0,0,35.44021,1,1,1000,1000
284647,27:52.2,IMU,223404769,0,-0.007944518,0.03989909,0.004035107,-0.8995019,0.2075163,-9.808926,0,0,35.44149,1,1,1000,1000
284747,27:52.3,IMU,223444753,0,-0.007856361,0.04070756,0.003976161,-0.9114793,0.2078111,-9.806587,0,0,35.44276,1,1,1000,1000
284803,27:52.3,IMU,223484737,0,-0.006201238,0.04151723,0.003991087,-0.9249008,0.2070698,-9.806491,0,0,35.44403,1,1,1000,1000
284855,27:52.3,IMU,223524721,0,-0.004005423,0.0373866,0.00375805,-0.937669,0.207932,-9.806359,0,0,35.44531,1,1,1000,1000
284957,27:52.4,IMU,223564705,0,-0.006535204,0.03478152,0.003616904,-0.9514151,0.2075618,-9.793409,0,0,35.44658,1,1,1000,1000
285011,27:52.4,IMU,223604689,0,-0.005601388,0.03805478,0.003455477,-0.9619263,0.2076937,-9.79576,0,0,35.44786,1,1,1000,1000
285109,27:52.5,IMU,223644673,0,-0.004930999,0.0417233,0.003313638,-0.9744335,0.2095951,-9.795496,0,0,35.44913,1,1,1000,1000
285160,27:52.5,IMU,223684657,0,-0.004228265,0.04289711,0.003250316,-0.9850387,0.2095098,-9.796284,0,0,35.4504,1,1,1000,1000
285212,27:52.5,IMU,223724641,0,-0.003649517,0.04307918,0.003140747,-0.9966183,0.2105244,-9.790944,0,0,35.45168,1,1,1000,1000
285312,27:52.6,IMU,223764625,0,-0.003069424,0.0453677,0.003236405,-1.007646,0.2107939,-9.791707,0,0,35.45295,1,1,1000,1000
285367,27:52.6,IMU,223804609,0,-0.002584341,0.04914224,0.003426165,-1.018197,0.2115472,-9.790559,0,0,35.45422,1,1,1000,1000
285465,27:52.7,IMU,223844593,0,-0.002079338,0.05323744,0.003548449,-1.025994,0.2104571,-9.788483,0,0,35.45549,1,1,1000,1000
285517,27:52.7,IMU,223885410,0,-0.002627822,0.05690917,0.003693126,-1.035183,0.2122255,-9.76924,0,0,35.4568,1,1,1000,1000
285570,27:52.7,IMU,223925394,0,-0.002515013,0.06072651,0.003560499,-1.044606,0.2136739,-9.773087,0,0,35.45807,1,1,1000,1000
285669,27:52.8,IMU,223965378,0,-0.002448365,0.06195882,0.003485743,-1.053213,0.2132294,-9.773675,0,0,35.45934,1,1,1000,1000
285724,27:52.8,IMU,224005362,0,-0.000110558,0.05901832,0.003294667,-1.062014,0.2143452,-9.766956,0,0,35.46062,1,1,1000,1000
285824,27:52.9,IMU,224045346,0,-1.77e-05,0.06019598,0.00314223,-1.068553,0.2159128,-9.76377,0,0,35.46189,1,1,1000,1000
285875,27:52.9,IMU,224085330,0,0.000354455,0.06176177,0.003091325,-1.074826,0.2157082,-9.766188,0,0,35.46316,1,1,999,999
285928,27:52.9,IMU,224125314,0,0.000567502,0.06068495,0.003001628,-1.082066,0.2171198,-9.770101,0,0,35.46443,1,1,999,999
286027,27:53.0,IMU,224165298,0,0.00076412,0.06379543,0.003175302,-1.086069,0.217644,-9.763577,0,0,35.4657,1,1,999,999
286081,27:53.0,IMU,224205282,0,-0.000886075,0.06525002,0.003333908,-1.090448,0.2180757,-9.759714,0,0,35.46697,1,1,999,999
286181,27:53.1,IMU,224245266,0,-0.001487729,0.06945705,0.003528841,-1.097091,0.2187366,-9.764897,0,0,35.46825,1,1,999,999
286232,27:53.1,IMU,224285250,0,-0.000536881,0.0730172,0.003399623,-1.100128,0.2194261,-9.753743,0,0,35.46952,1,1,999,999
286284,27:53.1,IMU,224325234,0,-1.27e-05,0.07051639,0.003355402,-1.103833,0.219555,-9.754292,0,0,35.47079,1,1,999,999
286383,27:53.2,IMU,224365218,0,0.000713951,0.0574116,0.003259871,-1.106334,0.2206361,-9.750103,0,0,35.47202,1,1,999,999
286438,27:53.2,IMU,224405202,0,-0.002020118,0.0509323,0.003255716,-1.10903,0.2216146,-9.750442,0,0,35.4733,1,1,999,999
286538,27:53.3,IMU,224445186,0,-0.001454226,0.04345141,0.00293929,-1.11031,0.222186,-9.753007,0,0,35.47456,1,1,999,999
286592,27:53.3,IMU,224485170,0,-0.00109647,0.03137849,0.002652169,-1.113662,0.2233662,-9.75003,0,0,35.47583,1,1,999,999
286644,27:53.3,IMU,224525154,0,-0.000786147,0.01906625,0.002440747,-1.11467,0.2240875,-9.756262,0,0,35.4771,1,1,999,999
286746,27:53.4,IMU,224565138,0,-0.000417425,0.008321477,0.002202112,-1.11648,0.2259703,-9.757538,0,0,35.47837,1,1,999,999
286800,27:53.4,IMU,224605122,0,-0.000136826,-0.001224332,0.002015169,-1.116831,0.224994,-9.758266,0,0,35.47964,1,1,999,999
286898,27:53.5,IMU,224645106,0,0.000133084,-0.00659503,0.001950695,-1.117731,0.2262764,-9.75378,0,0,35.48091,1,1,999,999
286949,27:53.5,IMU,224685090,0,0.000414234,-0.01097875,0.001947002,-1.118185,0.2271238,-9.753113,0,0,35.48218,1,1,999,999
287001,27:53.5,IMU,224725074,0,0.000581741,-0.01525493,0.001821945,-1.119253,0.2281056,-9.746458,0,0,35.48345,1,1,999,999
287101,27:53.6,IMU,224765058,0,0.000796064,-0.01694507,0.001779309,-1.120899,0.229519,-9.753717,0,0,35.48475,1,1,999,999
287156,27:53.6,IMU,224805042,0,0.000984972,-0.01405276,0.001644682,-1.121786,0.230063,-9.749605,0,0,35.48602,1,1,999,999
287254,27:53.7,IMU,224845026,0,0.001182891,-0.01586819,0.001546144,-1.123042,0.2306761,-9.752033,0,0,35.48729,1,1,999,999
287305,27:53.7,IMU,224885010,0,0.001407957,-0.01639618,0.00129145,-1.126192,0.2322771,-9.751011,0,0,35.48856,1,1,999,999
287359,27:53.7,IMU,224924994,0,0.001711014,-0.01590795,0.001180339,-1.12847,0.2315239,-9.753542,0,0,35.48979,1,1,999,999
287458,27:53.8,IMU,224964978,0,0.003518921,-0.01541279,0.000928098,-1.127798,0.2324273,-9.74999,0,0,35.49106,1,1,999,999
287513,27:53.8,IMU,225004962,0,0.00252003,-0.01422942,0.000851455,-1.130384,0.2344546,-9.757568,0,0,35.49233,1,1,999,999
287613,27:53.9,IMU,225044946,0,0.00113146,-0.01254611,0.000951057,-1.133383,0.2351115,-9.758586,0,0,35.4936,1,1,999,999
287664,27:53.9,IMU,225084930,0,0.000215598,-0.01088702,0.001123691,-1.135704,0.2346963,-9.753601,0,0,35.49487,1,1,1000,1000
287717,27:53.9,IMU,225124914,0,0.000406978,-0.009182043,0.001216387,-1.138405,0.2357664,-9.754376,0,0,35.49613,1,1,1000,1000
287816,27:54.0,IMU,225164898,0,-0.000144336,-0.008902512,0.001345498,-1.1401,0.2376586,-9.753579,0,0,35.4974,1,1,1000,1000
287870,27:54.0,IMU,225204882,0,-0.000642136,-0.008081549,0.001266688,-1.142299,0.2380736,-9.751979,0,0,35.49866,1,1,1000,1000
287969,27:54.1,IMU,225244866,0,-0.001152097,-0.006274716,0.00129706,-1.143646,0.2384585,-9.75438,0,0,35.49993,1,1,1000,1000
288021,27:54.1,IMU,225284850,0,0.000277362,-0.005047375,0.001204155,-1.147061,0.2401303,-9.751163,0,0,35.5012,1,1,1000,1000
288073,27:54.1,IMU,225324834,0,0.000340097,-0.003746438,0.001209824,-1.150405,0.2392934,-9.750538,0,0,35.50246,1,1,1000,1000
288172,27:54.2,IMU,225364818,0,0.0005602,-0.004137743,0.001142449,-1.151012,0.2409309,-9.749013,0,0,35.50373,1,1,1000,1000
288227,27:54.2,IMU,225404802,0,0.000705126,-0.004938443,0.000911223,-1.154171,0.2416991,-9.752913,0,0,35.505,1,1,1000,1000
288327,27:54.3,IMU,225444786,0,0.001899561,-0.002629818,0.000620798,-1.157149,0.2424621,-9.754526,0,0,35.50626,1,1,1000,1000
288381,27:54.3,IMU,225484770,0,0.000496114,-0.000819491,0.000200726,-1.158384,0.2427644,-9.746185,0,0,35.50753,1,1,1000,1000
288433,27:54.3,IMU,225524754,0,0.000706952,-0.001205646,-9.79e-05,-1.162039,0.2422089,-9.745092,0,0,35.5088,1,1,1000,1000
288535,27:54.4,IMU,225564738,0,0.000936302,-0.000799625,-0.000316352,-1.164121,0.2442553,-9.742965,0,0,35.51006,1,1,1000,1000
288589,27:54.4,IMU,225604722,0,0.002266685,-0.002799023,-0.000501856,-1.167704,0.2445908,-9.752501,0,0,35.51133,1,1,1000,1000
288687,27:54.5,IMU,225644706,0,0.002798799,-0.003984086,-0.000232603,-1.168789,0.2457016,-9.746473,0,0,35.51259,1,1,1000,1000
288738,27:54.5,IMU,225684690,0,0.002350838,-0.000773583,2.051645e-05,-1.170639,0.2452884,-9.747713,0,0,35.51385,1,1,1000,1000
288790,27:54.5,IMU,225724674,0,0.001746428,0.00041165,0.000196623,-1.174507,0.2460024,-9.746149,0,0,35.51512,1,1,1000,1000
288890,27:54.6,IMU,225764658,0,0.001476646,0.001785668,0.00026894,-1.176346,0.2472821,-9.745434,0,0,35.51638,1,1,1000,1000
288945,27:54.6,IMU,225804642,0,-0.000189136,0.002100493,0.00042026,-1.178163,0.2486129,-9.744066,0,0,35.51765,1,1,1000,1000
289043,27:54.7,IMU,225844626,0,-0.000292038,0.001896154,0.000425853,-1.181485,0.2496845,-9.741909,0,0,35.51891,1,1,1000,1000
289095,27:54.7,IMU,225884610,0,0.000531546,0.002980297,0.000412174,-1.183346,0.2501798,-9.742891,0,0,35.52018,1,1,1000,1000
289148,27:54.7,IMU,225924594,0,0.0021924,0.005002129,0.000379345,-1.186738,0.2509301,-9.74425,0,0,35.52144,1,1,1000,1000
289247,27:54.8,IMU,225964578,0,0.001252466,0.005852303,0.000154882,-1.186882,0.2504568,-9.742157,0,0,35.52271,1,1,1000,1000
289302,27:54.8,IMU,226005395,0,0.001632023,0.01297066,-1.61e-05,-1.192403,0.2520585,-9.739982,0,0,35.524,1,1,1000,1000
289402,27:54.9,IMU,226045379,0,0.001745648,0.01335994,-0.000422676,-1.192164,0.2522447,-9.745431,0,0,35.52526,1,1,1000,1000
289453,27:54.9,IMU,226085363,0,0.00188068,0.01107764,-0.000688607,-1.194758,0.2527264,-9.742271,0,0,35.52653,1,1,1000,1000
289506,27:54.9,IMU,226125347,0,0.001946388,0.008488186,-0.000867108,-1.197269,0.2534102,-9.738752,0,0,35.52779,1,1,1000,1000
289605,27:55.0,IMU,226165331,0,0.002116892,0.007280885,-0.000900164,-1.198145,0.2531288,-9.737912,0,0,35.52905,1,1,1000,1000
289659,27:55.0,IMU,226205315,0,0.002225455,0.006130152,-0.001031579,-1.200723,0.254732,-9.738827,0,0,35.53032,1,1,1000,1000
289758,27:55.1,IMU,226245299,0,0.001430268,0.006050063,-0.001014802,-1.202517,0.2555606,-9.738805,0,0,35.53158,1,1,1000,1000
289810,27:55.1,IMU,226285283,0,0.001429724,0.005978802,-0.001109074,-1.204321,0.2564253,-9.738948,0,0,35.53284,1,1,1000,1000
289862,27:55.1,IMU,226325267,0,0.001581385,0.005828273,-0.001157637,-1.205765,0.2560387,-9.739017,0,0,35.5341,1,1,1000,1000
289961,27:55.2,IMU,226365251,0,0.001771564,0.005615907,-0.001239107,-1.20723,0.2570323,-9.740197,0,0,35.53537,1,1,1000,1000
290015,27:55.2,IMU,226405235,0,-0.000972515,0.005175753,-0.001084421,-1.208073,0.257974,-9.73784,0,0,35.53663,1,1,1000,1000
290116,27:55.3,IMU,226445219,0,-0.000497891,0.00299559,-0.001185648,-1.209877,0.258646,-9.736694,0,0,35.53786,1,1,1000,1000
290170,27:55.3,IMU,226485203,0,-0.000168077,0.002398368,-0.001209582,-1.212027,0.2599599,-9.736961,0,0,35.53912,1,1,1000,1000
290222,27:55.3,IMU,226525187,0,7.324261e-05,0.005329035,-0.001268461,-1.2128,0.2594835,-9.742253,0,0,35.54038,1,1,1000,1000
290324,27:55.4,IMU,226565171,0,0.000336903,0.00707499,-0.001320352,-1.215635,0.2597122,-9.737408,0,0,35.54164,1,1,1000,1000
290378,27:55.4,IMU,226605155,0,0.000545859,0.007089778,-0.001354642,-1.215422,0.2607954,-9.738747,0,0,35.5429,1,1,1000,1000
290476,27:55.5,IMU,226645139,0,0.000786342,0.007784206,-0.001417837,-1.216805,0.2619932,-9.739488,0,0,35.54416,1,1,1000,1000
290527,27:55.5,IMU,226685123,0,0.001012999,0.007896557,-0.001583499,-1.21934,0.2623725,-9.737896,0,0,35.54543,1,1,1000,1000
290579,27:55.5,IMU,226725107,0,0.001173158,0.006854882,-0.001615767,-1.219649,0.2629373,-9.737109,0,0,35.54668,1,1,1000,1000
290679,27:55.6,IMU,226765091,0,0.001331752,0.006293308,-0.001598418,-1.221031,0.2642367,-9.739221,0,0,35.54794,1,1,1000,1000
290734,27:55.6,IMU,226805075,0,0.001528171,0.006445015,-0.001683494,-1.222309,0.2633523,-9.73926,0,0,35.54921,1,1,1000,1000
290832,27:55.7,IMU,226845059,0,0.001639558,0.007979261,-0.001684988,-1.224112,0.2631503,-9.738677,0,0,35.5505,1,1,1000,1000
290884,27:55.7,IMU,226885043,0,0.001762095,0.01512854,-0.001593351,-1.225227,0.265576,-9.737028,0,0,35.55176,1,1,1000,1000
290936,27:55.7,IMU,226925027,0,0.00191365,0.01358625,-0.001713772,-1.224982,0.2650453,-9.738917,0,0,35.55302,1,1,1000,1000
291036,27:55.8,IMU,226965011,0,0.001995129,0.01071705,-0.001681063,-1.226554,0.2660855,-9.739799,0,0,35.55428,1,1,1000,1000
291091,27:55.8,IMU,227004995,0,0.002113816,0.007827315,-0.001713462,-1.2274,0.2662435,-9.738694,0,0,35.5555,1,1,1000,1000
291191,27:55.9,IMU,227044979,0,0.00033722,0.005858588,-0.001751898,-1.228626,0.2677885,-9.73904,0,0,35.55676,1,1,1000,1000
291242,27:55.9,IMU,227084963,0,-0.000272685,0.005009498,-0.001745864,-1.227592,0.2682607,-9.737834,0,0,35.55802,1,1,999,999
291295,27:55.9,IMU,227124947,0,-0.000855677,0.00328479,-0.001753844,-1.228242,0.268246,-9.737479,0,0,35.55928,1,1,999,999
291394,27:56.0,IMU,227164931,0,-0.003237161,0.00271012,-0.001844986,-1.230856,0.2692599,-9.737321,0,0,35.56054,1,1,999,999
291448,27:56.0,IMU,227204915,0,-0.002866184,0.002011436,-0.001782008,-1.230015,0.2687768,-9.738953,0,0,35.5618,1,1,999,999
291547,27:56.1,IMU,227244899,0,-0.000758983,0.001616742,-0.001895405,-1.230317,0.2713443,-9.732798,0,0,35.56306,1,1,999,999
291599,27:56.1,IMU,227284883,0,0.002129294,0.001180763,-0.002286208,-1.230921,0.2713784,-9.7337,0,0,35.56432,1,1,999,999
291651,27:56.1,IMU,227324867,0,0.001257023,0.001898455,-0.002572742,-1.233546,0.2724594,-9.738673,0,0,35.56557,1,1,999,999
291750,27:56.2,IMU,227364851,0,0.00286778,0.00227967,-0.00308866,-1.232969,0.2724611,-9.738928,0,0,35.56683,1,1,999,999
291804,27:56.2,IMU,227404835,0,0.003407358,0.002377799,-0.00356905,-1.232468,0.2734558,-9.737386,0,0,35.56808,1,1,999,999
291904,27:56.3,IMU,227444819,0,0.002854712,0.003335366,-0.003959765,-1.234058,0.2728957,-9.733708,0,0,35.56934,1,1,999,999
291959,27:56.3,IMU,227484803,0,0.002389055,0.004507861,-0.004019056,-1.235013,0.2747175,-9.731031,0,0,35.5706,1,1,999,999
292013,27:56.3,IMU,227524787,0,0.001205721,0.005088374,-0.00413721,-1.235643,0.2745222,-9.735043,0,0,35.57186,1,1,999,999
292115,27:56.4,IMU,227564771,0,0.001289095,0.003556143,-0.004150516,-1.235539,0.2754651,-9.734287,0,0,35.57312,1,1,999,999
292169,27:56.4,IMU,227604755,0,0.00125072,0.004514709,-0.003948784,-1.2364,0.2750864,-9.734415,0,0,35.57437,1,1,999,999
292267,27:56.5,IMU,227644739,0,0.001442398,0.003287814,-0.003668114,-1.237415,0.2750394,-9.735949,0,0,35.57563,1,1,999,999
292318,27:56.5,IMU,227684723,0,0.001526202,0.001313133,-0.003522556,-1.236746,0.2765136,-9.735578,0,0,35.57689,1,1,999,999
292370,27:56.5,IMU,227724707,0,0.00172101,-0.00290437,-0.003344436,-1.2375,0.2770615,-9.734689,0,0,35.57814,1,1,999,999
292469,27:56.6,IMU,227764691,0,0.001864502,-0.000376054,-0.003178135,-1.23958,0.2788189,-9.735415,0,0,35.5794,1,1,999,999
292528,27:56.6,IMU,227804675,0,0.001993767,0.001939771,-0.003058819,-1.24057,0.2777531,-9.734381,0,0,35.58065,1,1,999,999
292626,27:56.7,IMU,227844659,0,0.005222286,0.001558768,-0.003106847,-1.240987,0.2788366,-9.734976,0,0,35.58191,1,1,999,999
292678,27:56.7,IMU,227884643,0,0.004569161,0.00210601,-0.002996319,-1.240856,0.2802238,-9.737149,0,0,35.58317,1,1,999,999
292730,27:56.7,IMU,227924627,0,0.004477158,0.002617401,-0.002821671,-1.242373,0.2803677,-9.734583,0,0,35.58442,1,1,999,999
292830,27:56.8,IMU,227964611,0,0.004372549,0.002743299,-0.002748745,-1.242075,0.2798685,-9.73501,0,0,35.58568,1,1,999,999
292885,27:56.8,IMU,228004595,0,0.004244713,0.004161731,-0.002615435,-1.241889,0.282542,-9.735653,0,0,35.58693,1,1,999,999
292985,27:56.9,IMU,228044579,0,0.003708649,0.005544687,-0.002557486,-1.243402,0.2827138,-9.731819,0,0,35.58819,1,1,999,999
293036,27:56.9,IMU,228085396,0,0.002851105,0.01084842,-0.00271267,-1.242699,0.2813249,-9.727908,0,0,35.58947,1,1,1000,1000
293089,27:56.9,IMU,228125380,0,0.001457951,0.01080766,-0.003091492,-1.244313,0.2838453,-9.738234,0,0,35.59073,1,1,1000,1000
293190,27:57.0,IMU,228165364,0,0.000433266,0.007076669,-0.003446877,-1.243992,0.2827969,-9.73135,0,0,35.59198,1,1,1000,1000
293244,27:57.0,IMU,228205348,0,-0.000207704,0.004532377,-0.003614847,-1.24499,0.2846857,-9.732792,0,0,35.59324,1,1,1000,1000
293343,27:57.1,IMU,228245332,0,0.002008057,0.000831831,-0.00380467,-1.244474,0.2834001,-9.731514,0,0,35.59449,1,1,1000,1000
293395,27:57.1,IMU,228285316,0,0.002806041,-0.003112752,-0.003882643,-1.245988,0.285292,-9.734384,0,0,35.59575,1,1,1000,1000
293447,27:57.1,IMU,228325300,0,0.000530711,-0.005992956,-0.003708512,-1.247158,0.2851247,-9.737548,0,0,35.597,1,1,1000,1000
293546,27:57.2,IMU,228365284,0,0.000868771,-0.006491373,-0.003593078,-1.246587,0.284328,-9.734694,0,0,35.59825,1,1,1000,1000
293600,27:57.2,IMU,228405268,0,0.001051893,-0.006176035,-0.003337302,-1.245681,0.2863756,-9.734076,0,0,35.59951,1,1,1000,1000
293700,27:57.3,IMU,228445252,0,0.001212241,-0.006489678,-0.003202471,-1.247901,0.2856249,-9.734151,0,0,35.60076,1,1,1000,1000
293755,27:57.3,IMU,228485236,0,0.0013972,-0.00770236,-0.00302246,-1.248744,0.2866929,-9.733776,0,0,35.60201,1,1,1000,1000
293807,27:57.3,IMU,228525220,0,0.001596857,-0.01028284,-0.002951606,-1.24823,0.2870288,-9.734356,0,0,35.60323,1,1,1000,1000
293909,27:57.4,IMU,228565204,0,0.001723469,-0.01178589,-0.002778128,-1.247819,0.2882981,-9.7349,0,0,35.60449,1,1,1000,1000
293963,27:57.4,IMU,228605188,0,0.00182608,-0.009556605,-0.002684586,-1.250158,0.2874947,-9.731849,0,0,35.60574,1,1,1000,1000
294061,27:57.5,IMU,228645172,0,0.001907376,-0.00827667,-0.002592111,-1.250657,0.2883991,-9.732395,0,0,35.60699,1,1,1000,1000
294112,27:57.5,IMU,228685156,0,0.002134508,-0.008545281,-0.00261707,-1.25139,0.288977,-9.732453,0,0,35.60825,1,1,1000,1000
294164,27:57.5,IMU,228725140,0,0.002113006,-0.008206763,-0.002612788,-1.251849,0.289902,-9.732629,0,0,35.6095,1,1,1000,1000
294263,27:57.6,IMU,228765124,0,0.002223872,-0.007087893,-0.002587861,-1.252478,0.290172,-9.73176,0,0,35.61075,1,1,1000,1000
294319,27:57.6,IMU,228805108,0,0.002311023,-0.004971499,-0.002605369,-1.253687,0.2906283,-9.7332,0,0,35.612,1,1,1000,1000
294417,27:57.7,IMU,228845092,0,0.002374124,-0.002937802,-0.002593802,-1.255854,0.2909659,-9.733013,0,0,35.61325,1,1,1000,1000
294469,27:57.7,IMU,228885076,0,0.00250516,-0.002700378,-0.002743781,-1.256687,0.2914412,-9.733592,0,0,35.6145,1,1,1000,1000
294521,27:57.7,IMU,228925060,0,0.002872813,-0.001553773,-0.002871005,-1.257268,0.2913145,-9.73307,0,0,35.61579,1,1,1000,1000
294620,27:57.8,IMU,228965044,0,0.003804428,0.005365869,-0.00274185,-1.259821,0.292495,-9.732896,0,0,35.61704,1,1,1000,1000
