Unnamed: 0,Timestamp,Unnamed: 2,TimeUS,I,GyrX,GyrY,GyrZ,AccX,AccY,AccZ,EG,EA,T,GH,AH,GHz,AHz
469245,29:35.1,IMU,326325251,0,0.005429639,-0.1287623,1.205381,-2.167173,0.1433603,-9.676354,0,0,38.21739,1,1,999,999
469345,29:35.2,IMU,326365235,0,0.005261894,-0.1292504,1.226004,-2.1164,0.2136247,-9.654102,0,0,38.21829,1,1,999,999
469399,29:35.2,IMU,326405219,0,0.00439269,-0.1289113,1.236674,-2.06022,0.2864376,-9.635494,0,0,38.21917,1,1,999,999
469499,29:35.3,IMU,326445203,0,0.003493667,-0.1250396,1.239862,-2.001363,0.3614133,-9.620002,0,0,38.22008,1,1,999,999
469553,29:35.3,IMU,326485187,0,0.000294205,-0.1201597,1.237141,-1.938571,0.4391099,-9.606728,0,0,38.22098,1,1,999,999
469605,29:35.3,IMU,326525171,0,-0.004328995,-0.1144845,1.230006,-1.871114,0.5186877,-9.595079,0,0,38.22189,1,1,999,999
469706,29:35.4,IMU,326565155,0,-0.008284057,-0.1078034,1.219498,-1.803099,0.5963399,-9.586457,0,0,38.22279,1,1,999,999
469760,29:35.4,IMU,326605139,0,-0.01294036,-0.1016131,1.206852,-1.732893,0.6753011,-9.577529,0,0,38.22369,1,1,999,999
469859,29:35.5,IMU,326645123,0,-0.01798551,-0.09336157,1.192761,-1.661335,0.7518951,-9.572884,0,0,38.2246,1,1,999,999
469911,29:35.5,IMU,326685107,0,-0.02409036,-0.08406803,1.177946,-1.588763,0.8273527,-9.569276,0,0,38.2255,1,1,999,999
469963,29:35.5,IMU,326725091,0,-0.02885601,-0.07370498,1.162803,-1.51737,0.9017645,-9.567699,0,0,38.2264,1,1,999,999
470062,29:35.6,IMU,326765075,0,-0.03650674,-0.0649469,1.147775,-1.442815,0.9741093,-9.561003,0,0,38.22731,1,1,999,999
470116,29:35.6,IMU,326805059,0,-0.0396207,-0.05779748,1.133059,-1.370811,1.043825,-9.564906,0,0,38.22823,1,1,999,999
470215,29:35.7,IMU,326845043,0,-0.04733597,-0.04802382,1.119151,-1.297839,1.111101,-9.563574,0,0,38.22913,1,1,999,999
470266,29:35.7,IMU,326885027,0,-0.05331724,-0.03943146,1.10606,-1.225253,1.174291,-9.566906,0,0,38.23004,1,1,999,999
470318,29:35.7,IMU,326925011,0,-0.05938489,-0.03010317,1.094198,-1.154814,1.237194,-9.564901,0,0,38.23094,1,1,999,999
470417,29:35.8,IMU,326964995,0,-0.06389509,-0.02420759,1.083574,-1.083984,1.296715,-9.569805,0,0,38.23182,1,1,999,999
470471,29:35.8,IMU,327004979,0,-0.06548683,-0.01870179,1.07441,-1.012535,1.353015,-9.566967,0,0,38.23272,1,1,999,999
470572,29:35.9,IMU,327044963,0,-0.07156575,-0.01107453,1.066712,-0.9441615,1.407906,-9.574295,0,0,38.23362,1,1,999,999
470623,29:35.9,IMU,327084947,0,-0.07337707,-0.005029124,1.06039,-0.8755378,1.457596,-9.574119,0,0,38.23453,1,1,999,999
470675,29:35.9,IMU,327124931,0,-0.07457683,0.002654356,1.055492,-0.8078378,1.506771,-9.570892,0,0,38.23543,1,1,999,999
470774,29:36.0,IMU,327164915,0,-0.07898591,0.006785368,1.051783,-0.7410372,1.550854,-9.572166,0,0,38.23633,1,1,999,999
470829,29:36.0,IMU,327204899,0,-0.07839911,0.01132716,1.049,-0.6757119,1.594788,-9.580256,0,0,38.23723,1,1,999,999
470928,29:36.1,IMU,327244883,0,-0.07765457,0.01464894,1.047215,-0.6094385,1.633573,-9.569777,0,0,38.23814,1,1,999,999
470979,29:36.1,IMU,327284867,0,-0.08108902,0.01801982,1.04621,-0.5462039,1.671647,-9.574717,0,0,38.23904,1,1,999,999
471032,29:36.1,IMU,327324851,0,-0.07825571,0.02202783,1.045887,-0.4830443,1.703918,-9.576186,0,0,38.23994,1,1,999,999
471132,29:36.2,IMU,327364835,0,-0.07732538,0.0229073,1.046075,-0.4220982,1.735509,-9.574215,0,0,38.24084,1,1,999,999
471186,29:36.2,IMU,327404819,0,-0.07461997,0.02451972,1.046439,-0.3607017,1.762717,-9.581113,0,0,38.24174,1,1,999,999
471286,29:36.3,IMU,327444803,0,-0.06814259,0.0261262,1.047198,-0.3017204,1.786544,-9.583039,0,0,38.24264,1,1,999,999
471340,29:36.3,IMU,327484787,0,-0.06782864,0.0247446,1.048036,-0.2439227,1.806764,-9.579111,0,0,38.24354,1,1,999,999
471392,29:36.3,IMU,327524771,0,-0.06319349,0.02206307,1.049263,-0.1894591,1.82323,-9.590556,0,0,38.24444,1,1,999,999
471493,29:36.4,IMU,327564755,0,-0.05677525,0.01959394,1.050388,-0.1354662,1.835805,-9.590336,0,0,38.24534,1,1,999,999
471547,29:36.4,IMU,327604739,0,-0.04811789,0.01827708,1.051431,-0.08135095,1.846151,-9.595603,0,0,38.24624,1,1,999,999
471645,29:36.5,IMU,327644723,0,-0.04126303,0.01280935,1.052487,-0.03055443,1.848796,-9.601125,0,0,38.24714,1,1,999,999
471696,29:36.5,IMU,327684707,0,-0.0366779,0.00520621,1.053597,0.01774479,1.849758,-9.605293,0,0,38.24804,1,1,999,999
471749,29:36.5,IMU,327724691,0,-0.03415639,-0.001119695,1.054619,0.06844362,1.846554,-9.620076,0,0,38.24894,1,1,999,999
471848,29:36.6,IMU,327764675,0,-0.02937254,-0.007817016,1.055678,0.1232452,1.839375,-9.628893,0,0,38.24984,1,1,999,999
471902,29:36.6,IMU,327804659,0,-0.02706808,-0.01243609,1.056853,0.1808885,1.827416,-9.634552,0,0,38.25074,1,1,999,999
472001,29:36.7,IMU,327844643,0,-0.0241796,-0.01585937,1.057696,0.2403665,1.810298,-9.635941,0,0,38.25164,1,1,999,999
472052,29:36.7,IMU,327884627,0,-0.02149223,-0.01749493,1.058392,0.3016692,1.788946,-9.639631,0,0,38.25254,1,1,999,999
472104,29:36.7,IMU,327924611,0,-0.01691702,-0.0177317,1.058872,0.3683624,1.762968,-9.65287,0,0,38.25344,1,1,999,999
472205,29:36.8,IMU,327964595,0,-0.01171737,-0.01886675,1.059305,0.4328818,1.736132,-9.661465,0,0,38.25434,1,1,999,999
472259,29:36.8,IMU,328004579,0,-0.005828858,-0.01679884,1.059728,0.5028229,1.7017,-9.662631,0,0,38.25524,1,1,999,999
472360,29:36.9,IMU,328045396,0,-0.001964473,-0.009489656,1.060169,0.5732108,1.662947,-9.664183,0,0,38.25616,1,1,999,999
472411,29:36.9,IMU,328085380,0,0.003843287,-0.003634763,1.060133,0.6460177,1.622852,-9.670707,0,0,38.25706,1,1,999,999
472463,29:36.9,IMU,328125364,0,0.01056862,0.001986377,1.060127,0.7180595,1.576644,-9.669534,0,0,38.25796,1,1,1000,1000
472562,29:37.0,IMU,328165348,0,0.01722918,0.009593117,1.059812,0.7910881,1.529581,-9.670111,0,0,38.25886,1,1,1000,1000
472616,29:37.0,IMU,328205332,0,0.02316876,0.01714534,1.059425,0.8621964,1.480397,-9.672271,0,0,38.25976,1,1,1000,1000
472716,29:37.1,IMU,328245316,0,0.0273653,0.02427504,1.059193,0.9356496,1.424792,-9.669687,0,0,38.26066,1,1,1000,1000
472767,29:37.1,IMU,328285300,0,0.03437019,0.03180069,1.058769,1.008805,1.368417,-9.656242,0,0,38.26156,1,1,1000,1000
472819,29:37.1,IMU,328325284,0,0.04027377,0.03607193,1.058435,1.082003,1.310128,-9.654449,0,0,38.26245,1,1,1000,1000
472920,29:37.2,IMU,328365268,0,0.0465286,0.0380819,1.057981,1.153583,1.247742,-9.645935,0,0,38.26336,1,1,1000,1000
472974,29:37.2,IMU,328405252,0,0.05609681,0.04056673,1.057573,1.223568,1.184663,-9.649957,0,0,38.26425,1,1,1000,1000
473074,29:37.3,IMU,328445236,0,0.06204821,0.0423759,1.057199,1.292588,1.11923,-9.639139,0,0,38.26515,1,1,1000,1000
473128,29:37.3,IMU,328485220,0,0.06588191,0.04462972,1.057003,1.359127,1.054064,-9.631417,0,0,38.26603,1,1,1000,1000
473180,29:37.3,IMU,328525204,0,0.06856117,0.04781045,1.056986,1.423524,0.9863452,-9.630747,0,0,38.26692,1,1,1000,1000
473281,29:37.4,IMU,328565188,0,0.06945199,0.0508523,1.057163,1.487153,0.9171534,-9.618363,0,0,38.26782,1,1,1000,1000
473335,29:37.4,IMU,328605172,0,0.07502463,0.04700755,1.057009,1.547969,0.8471741,-9.607353,0,0,38.26872,1,1,1000,1000
473433,29:37.5,IMU,328645156,0,0.07934625,0.04992956,1.057299,1.604117,0.7755141,-9.601745,0,0,38.26962,1,1,1000,1000
473484,29:37.5,IMU,328685140,0,0.07992908,0.05481493,1.057199,1.657627,0.7061702,-9.590104,0,0,38.27052,1,1,1000,1000
473536,29:37.5,IMU,328725124,0,0.07835977,0.05449109,1.057145,1.708953,0.634427,-9.577686,0,0,38.27141,1,1,1000,1000
473636,29:37.6,IMU,328765108,0,0.08140558,0.05590685,1.057105,1.75569,0.5637354,-9.568068,0,0,38.27231,1,1,1000,1000
473690,29:37.6,IMU,328805092,0,0.08230172,0.05574575,1.056938,1.797186,0.4936829,-9.554743,0,0,38.2732,1,1,1000,1000
473789,29:37.7,IMU,328845076,0,0.080962,0.05346965,1.056839,1.835369,0.4254822,-9.543943,0,0,38.2741,1,1,1000,1000
473840,29:37.7,IMU,328885060,0,0.08101887,0.0566422,1.056719,1.869613,0.3579015,-9.542215,0,0,38.27502,1,1,1000,1000
473892,29:37.7,IMU,328925044,0,0.08076368,0.05701108,1.056773,1.898214,0.2909589,-9.513078,0,0,38.27592,1,1,1000,1000
473991,29:37.8,IMU,328965028,0,0.07428648,0.05250782,1.056247,1.922063,0.2272001,-9.511501,0,0,38.27681,1,1,1000,1000
474045,29:37.8,IMU,329005012,0,0.07453188,0.05344916,1.055973,1.940857,0.1639805,-9.501051,0,0,38.27771,1,1,1000,1000
474146,29:37.9,IMU,329044996,0,0.07472841,0.05512538,1.055773,1.952783,0.1042411,-9.483173,0,0,38.27858,1,1,1000,1000
474197,29:37.9,IMU,329084980,0,0.0704227,0.05119381,1.055439,1.962051,0.04707799,-9.476589,0,0,38.27948,1,1,1000,1000
474249,29:37.9,IMU,329124964,0,0.06470494,0.04790853,1.05492,1.964771,-0.008390388,-9.471079,0,0,38.28038,1,1,999,999
474348,29:38.0,IMU,329164948,0,0.05894897,0.04600014,1.054555,1.96213,-0.06612887,-9.462859,0,0,38.28127,1,1,999,999
474402,29:38.0,IMU,329204932,0,0.05360526,0.04249904,1.054446,1.954237,-0.1256267,-9.459301,0,0,38.28217,1,1,999,999
474502,29:38.1,IMU,329244916,0,0.04886293,0.03547728,1.054513,1.938964,-0.1908797,-9.450956,0,0,38.28306,1,1,999,999
474553,29:38.1,IMU,329284900,0,0.04454321,0.02917201,1.054577,1.921886,-0.2590534,-9.453666,0,0,38.28396,1,1,999,999
474605,29:38.1,IMU,329324884,0,0.04067241,0.01765713,1.05483,1.896298,-0.3311215,-9.450033,0,0,38.28485,1,1,999,999
474707,29:38.2,IMU,329364868,0,0.03249081,0.004458634,1.054999,1.867139,-0.4067497,-9.454185,0,0,38.28575,1,1,999,999
474762,29:38.2,IMU,329404852,0,0.02540574,-0.008030406,1.055198,1.832775,-0.4836224,-9.457701,0,0,38.28664,1,1,999,999
474862,29:38.3,IMU,329444836,0,0.01881038,-0.01929656,1.055366,1.793478,-0.5653718,-9.462754,0,0,38.28754,1,1,999,999
474919,29:38.3,IMU,329484820,0,0.01447228,-0.02817549,1.055519,1.749142,-0.6495318,-9.471301,0,0,38.28843,1,1,999,999
474971,29:38.3,IMU,329524804,0,0.01140024,-0.03925315,1.055863,1.698893,-0.7343562,-9.47699,0,0,38.28933,1,1,999,999
475072,29:38.4,IMU,329564788,0,0.009230744,-0.04888335,1.056069,1.644492,-0.8204284,-9.479172,0,0,38.29023,1,1,999,999
475126,29:38.4,IMU,329604772,0,0.006461217,-0.05773776,1.05639,1.585439,-0.9070797,-9.483309,0,0,38.29112,1,1,999,999
475224,29:38.5,IMU,329644756,0,0.005086503,-0.06832489,1.056862,1.523988,-0.9951739,-9.489935,0,0,38.29201,1,1,999,999
475275,29:38.5,IMU,329684740,0,0.002797033,-0.08060634,1.057193,1.456947,-1.082951,-9.497059,0,0,38.29291,1,1,999,999
475327,29:38.5,IMU,329724724,0,-0.000493104,-0.09447116,1.057556,1.388171,-1.169584,-9.506495,0,0,38.2938,1,1,999,999
475427,29:38.6,IMU,329764708,0,-0.006052061,-0.1075746,1.057887,1.314256,-1.255862,-9.522327,0,0,38.2947,1,1,999,999
475481,29:38.6,IMU,329804692,0,-0.01097675,-0.1195832,1.058289,1.237625,-1.340592,-9.531416,0,0,38.29559,1,1,999,999
475580,29:38.7,IMU,329844676,0,-0.01818386,-0.1273833,1.058467,1.159987,-1.42284,-9.542162,0,0,38.29649,1,1,999,999
475631,29:38.7,IMU,329884660,0,-0.02211215,-0.1330302,1.057924,1.08028,-1.503,-9.5556,0,0,38.29738,1,1,999,999
475683,29:38.7,IMU,329924644,0,-0.02481042,-0.1390277,1.049491,1.000143,-1.579757,-9.570207,0,0,38.29827,1,1,999,999
475782,29:38.8,IMU,329964628,0,-0.02787082,-0.1429171,1.025073,0.919206,-1.653406,-9.587185,0,0,38.29916,1,1,999,999
475836,29:38.8,IMU,330004612,0,-0.02993589,-0.1451662,0.9821804,0.840831,-1.718147,-9.594269,0,0,38.30006,1,1,999,999
475937,29:38.9,IMU,330044596,0,-0.03052313,-0.1474694,0.9223108,0.7639807,-1.775806,-9.610026,0,0,38.30095,1,1,999,999
475988,29:38.9,IMU,330084580,0,-0.03069641,-0.1484328,0.8483809,0.6913581,-1.824734,-9.622872,0,0,38.30185,1,1,999,999
476040,29:38.9,IMU,330125397,0,-0.03065098,-0.1473783,0.7619156,0.622648,-1.867267,-9.641386,0,0,38.30276,1,1,1000,1000
476139,29:39.0,IMU,330165381,0,-0.02973782,-0.1463574,0.6710275,0.5623055,-1.900439,-9.657006,0,0,38.30365,1,1,1000,1000
476193,29:39.0,IMU,330205365,0,-0.03134152,-0.1457962,0.5782224,0.5092764,-1.926143,-9.673165,0,0,38.30455,1,1,1000,1000
476292,29:39.1,IMU,330245349,0,-0.03155069,-0.1450869,0.4864783,0.4625561,-1.946668,-9.69117,0,0,38.30544,1,1,1000,1000
476344,29:39.1,IMU,330285333,0,-0.03149281,-0.1432458,0.3983211,0.4222154,-1.960301,-9.710661,0,0,38.30633,1,1,1000,1000
476396,29:39.1,IMU,330325317,0,-0.03297295,-0.1447584,0.3160669,0.3883209,-1.971139,-9.729189,0,0,38.30722,1,1,1000,1000
476496,29:39.2,IMU,330365301,0,-0.03140822,-0.1392276,0.2408495,0.3563863,-1.977195,-9.746588,0,0,38.30811,1,1,1000,1000
476551,29:39.2,IMU,330405285,0,-0.03257262,-0.1401726,0.1738823,0.3319166,-1.981231,-9.770478,0,0,38.30901,1,1,1000,1000
476652,29:39.3,IMU,330445269,0,-0.03352261,-0.1384922,0.1154614,0.309953,-1.983696,-9.791104,0,0,38.3099,1,1,1000,1000
476706,29:39.3,IMU,330485253,0,-0.03383606,-0.1375346,0.06567074,0.2923732,-1.982818,-9.812704,0,0,38.31079,1,1,1000,1000
476758,29:39.3,IMU,330525237,0,-0.03528789,-0.1363362,0.02419513,0.2761107,-1.98391,-9.836039,0,0,38.31168,1,1,1000,1000
476859,29:39.4,IMU,330565221,0,-0.03565907,-0.1382665,-0.008578302,0.2605456,-1.977217,-9.855299,0,0,38.31255,1,1,1000,1000
476913,29:39.4,IMU,330605205,0,-0.03596003,-0.1377506,-0.03514306,0.2477517,-1.974793,-9.876908,0,0,38.31345,1,1,1000,1000
477011,29:39.5,IMU,330645189,0,-0.03531358,-0.1363976,-0.05532258,0.2366936,-1.96906,-9.901689,0,0,38.31433,1,1,1000,1000
477062,29:39.5,IMU,330685173,0,-0.03194801,-0.1358146,-0.06954983,0.2251965,-1.965744,-9.9218,0,0,38.31523,1,1,1000,1000
477114,29:39.5,IMU,330725157,0,-0.026319,-0.1343603,-0.07891297,0.2152643,-1.959803,-9.941999,0,0,38.31612,1,1,1000,1000
477213,29:39.6,IMU,330765141,0,-0.01911702,-0.1328681,-0.08379265,0.2030229,-1.952946,-9.955976,0,0,38.31701,1,1,1000,1000
477268,29:39.6,IMU,330805125,0,-0.01078593,-0.1303377,-0.08490561,0.1920601,-1.947619,-9.971834,0,0,38.3179,1,1,1000,1000
477367,29:39.7,IMU,330845109,0,-0.001458109,-0.1279568,-0.08272015,0.1798447,-1.941031,-9.982149,0,0,38.31879,1,1,1000,1000
477418,29:39.7,IMU,330885093,0,0.006100874,-0.1279694,-0.07771555,0.1685848,-1.934439,-9.991488,0,0,38.31968,1,1,1000,1000
477470,29:39.7,IMU,330925077,0,0.01267155,-0.1259694,-0.07059991,0.1548683,-1.929821,-10.00006,0,0,38.32057,1,1,1000,1000
477570,29:39.8,IMU,330965061,0,0.01854628,-0.1235583,-0.06206514,0.1423476,-1.923539,-10.00735,0,0,38.32149,1,1,1000,1000
477624,29:39.8,IMU,331005045,0,0.0221013,-0.1219785,-0.05232534,0.128082,-1.917452,-10.01126,0,0,38.32238,1,1,1000,1000
477725,29:39.9,IMU,331045029,0,0.0252374,-0.121128,-0.04253369,0.1143946,-1.914094,-10.02437,0,0,38.32327,1,1,1000,1000
477776,29:39.9,IMU,331085013,0,0.02700214,-0.1228647,-0.0326144,0.09919133,-1.9097,-10.03125,0,0,38.32416,1,1,1000,1000
477828,29:39.9,IMU,331124997,0,0.02599232,-0.1224101,-0.02332554,0.08273605,-1.906866,-10.03494,0,0,38.32502,1,1,999,999
477927,29:40.0,IMU,331164981,0,0.02332636,-0.1223848,-0.01451177,0.06582297,-1.903734,-10.04408,0,0,38.32592,1,1,999,999
477981,29:40.0,IMU,331204965,0,0.02393252,-0.1257999,-0.006492084,0.04840682,-1.901033,-10.04834,0,0,38.32681,1,1,999,999
478081,29:40.1,IMU,331244949,0,0.02197291,-0.1241109,0.000280673,0.03200554,-1.89784,-10.05162,0,0,38.32769,1,1,999,999
478133,29:40.1,IMU,331284933,0,0.02043616,-0.1207162,0.005874362,0.01356368,-1.895837,-10.05899,0,0,38.32858,1,1,999,999
478185,29:40.1,IMU,331324917,0,0.0195293,-0.1187469,0.01053219,-0.003971372,-1.895269,-10.06452,0,0,38.32947,1,1,999,999
478285,29:40.2,IMU,331364901,0,0.02036262,-0.1131448,0.01406446,-0.02300249,-1.891987,-10.06813,0,0,38.33036,1,1,999,999
478340,29:40.2,IMU,331404885,0,0.01877446,-0.1034131,0.01641504,-0.04037286,-1.890817,-10.07569,0,0,38.33125,1,1,999,999
478440,29:40.3,IMU,331444869,0,0.01747461,-0.088928,0.01766634,-0.06209796,-1.890443,-10.08145,0,0,38.33214,1,1,999,999
478494,29:40.3,IMU,331484853,0,0.0161915,-0.08152697,0.01855255,-0.08224329,-1.888901,-10.08467,0,0,38.33303,1,1,999,999
478546,29:40.3,IMU,331524837,0,0.01502207,-0.06851871,0.01857379,-0.1037351,-1.887457,-10.08502,0,0,38.33392,1,1,999,999
478647,29:40.4,IMU,331564821,0,0.01406129,-0.06152715,0.01816984,-0.1257167,-1.88502,-10.08225,0,0,38.33481,1,1,999,999
478701,29:40.4,IMU,331604805,0,0.0131893,-0.05308898,0.01725134,-0.1494995,-1.884738,-10.08302,0,0,38.3357,1,1,999,999
478799,29:40.5,IMU,331644789,0,0.01319345,-0.04864233,0.01615595,-0.1732991,-1.88306,-10.07522,0,0,38.33659,1,1,999,999
478850,29:40.5,IMU,331684773,0,0.01230155,-0.04691086,0.01504078,-0.1959155,-1.882872,-10.07473,0,0,38.33747,1,1,999,999
478902,29:40.5,IMU,331724757,0,0.01153631,-0.04108412,0.01348353,-0.2198168,-1.879847,-10.06855,0,0,38.33836,1,1,999,999
479001,29:40.6,IMU,331764741,0,0.01076863,-0.04203662,0.01195649,-0.2442405,-1.879463,-10.05945,0,0,38.33925,1,1,999,999
479056,29:40.6,IMU,331804725,0,0.01281898,-0.04602622,0.01067872,-0.2680762,-1.877647,-10.06028,0,0,38.34014,1,1,999,999
479154,29:40.7,IMU,331844709,0,0.01334221,-0.04877967,0.009452628,-0.294772,-1.878371,-10.05365,0,0,38.34103,1,1,999,999
479206,29:40.7,IMU,331884693,0,0.009412899,-0.04706701,0.008405903,-0.3167517,-1.87633,-10.05104,0,0,38.34191,1,1,999,999
479258,29:40.7,IMU,331924677,0,0.008865205,-0.047049,0.007460186,-0.3425941,-1.876941,-10.04715,0,0,38.3428,1,1,999,999
479358,29:40.8,IMU,331964661,0,0.00660313,-0.05008604,0.007020012,-0.3681047,-1.876035,-10.0499,0,0,38.34369,1,1,999,999
479414,29:40.8,IMU,332004645,0,0.006481511,-0.05224603,0.006761326,-0.3938972,-1.874697,-10.03752,0,0,38.34457,1,1,999,999
479515,29:40.9,IMU,332044629,0,0.003854665,-0.05416052,0.006367453,-0.4203393,-1.87613,-10.049,0,0,38.34546,1,1,999,999
479566,29:40.9,IMU,332084613,0,0.003414985,-0.0558778,0.006470354,-0.4450496,-1.874894,-10.0398,0,0,38.34635,1,1,999,999
479618,29:40.9,IMU,332124597,0,0.003414978,-0.05941402,0.006516476,-0.4716247,-1.873685,-10.02797,0,0,38.34724,1,1,999,999
479717,29:41.0,IMU,332164581,0,0.001549472,-0.0634336,0.006856701,-0.4982705,-1.874973,-10.03841,0,0,38.34813,1,1,999,999
479771,29:41.0,IMU,332205398,0,0.001932041,-0.06134184,0.007016688,-0.5260183,-1.874086,-10.03025,0,0,38.34903,1,1,999,999
479870,29:41.1,IMU,332245382,0,-0.000611803,-0.06003591,0.007087067,-0.5539206,-1.875009,-10.02421,0,0,38.34992,1,1,999,999
479921,29:41.1,IMU,332285366,0,0.003443009,-0.06375253,0.00748658,-0.5804976,-1.874631,-10.03108,0,0,38.35081,1,1,999,999
479974,29:41.1,IMU,332325350,0,-0.00011316,-0.07042385,0.008025291,-0.6093728,-1.873755,-10.02666,0,0,38.35169,1,1,999,999
480074,29:41.2,IMU,332365334,0,-0.002021638,-0.07080857,0.008451652,-0.6372089,-1.873278,-10.02101,0,0,38.35258,1,1,999,999
480129,29:41.2,IMU,332405318,0,-0.002366018,-0.07322923,0.008795233,-0.6653979,-1.874056,-10.02017,0,0,38.35347,1,1,999,999
480229,29:41.3,IMU,332445302,0,-0.002524246,-0.07444032,0.009228445,-0.693895,-1.874217,-10.02466,0,0,38.35435,1,1,999,999
480284,29:41.3,IMU,332485286,0,-0.001016208,-0.07074225,0.009706996,-0.72281,-1.874522,-10.01399,0,0,38.35524,1,1,999,999
480336,29:41.3,IMU,332525270,0,-0.00223372,-0.06728972,0.009903509,-0.7526524,-1.873916,-10.0217,0,0,38.35612,1,1,999,999
480437,29:41.4,IMU,332565254,0,-0.002821655,-0.0631316,0.01021683,-0.7837036,-1.873721,-10.01424,0,0,38.35701,1,1,999,999
480491,29:41.4,IMU,332605238,0,-0.002118729,-0.0511357,0.01008364,-0.8125263,-1.873892,-10.01114,0,0,38.35789,1,1,999,999
480590,29:41.5,IMU,332645222,0,-0.00324346,-0.04436063,0.009622003,-0.8431275,-1.872366,-10.0051,0,0,38.35876,1,1,999,999
480641,29:41.5,IMU,332685206,0,-0.004171846,-0.03464508,0.009416308,-0.8745406,-1.872556,-10.00517,0,0,38.35965,1,1,999,999
480693,29:41.5,IMU,332725190,0,-0.001051921,-0.02313915,0.008874179,-0.907398,-1.871284,-9.995314,0,0,38.36053,1,1,999,999
480792,29:41.6,IMU,332765174,0,-0.000611681,-0.01506725,0.008439819,-0.9389873,-1.870007,-9.989655,0,0,38.36142,1,1,999,999
480846,29:41.6,IMU,332805158,0,-0.00017651,-0.005746969,0.007706129,-0.9712062,-1.870486,-9.972823,0,0,38.3623,1,1,999,999
480945,29:41.7,IMU,332845142,0,0.000212602,0.000280773,0.006987121,-1.004719,-1.86772,-9.963854,0,0,38.36319,1,1,999,999
480997,29:41.7,IMU,332885126,0,0.000659454,0.004048359,0.00629995,-1.034893,-1.866901,-9.953418,0,0,38.36407,1,1,999,999
481049,29:41.7,IMU,332925110,0,0.000909884,0.00641164,0.005567268,-1.066669,-1.866885,-9.939318,0,0,38.36496,1,1,999,999
481148,29:41.8,IMU,332965094,0,0.001224054,0.007163059,0.004965008,-1.099039,-1.865203,-9.929296,0,0,38.36584,1,1,999,999
481202,29:41.8,IMU,333005078,0,0.001559875,0.006784083,0.004432311,-1.129985,-1.86343,-9.915776,0,0,38.36672,1,1,999,999
481303,29:41.9,IMU,333045062,0,0.00175493,0.006210698,0.003817647,-1.160344,-1.862204,-9.90274,0,0,38.36763,1,1,999,999
481354,29:41.9,IMU,333085046,0,0.001988391,0.01086246,0.003170279,-1.191001,-1.861367,-9.887829,0,0,38.36852,1,1,999,999
481406,29:41.9,IMU,333125030,0,0.000250363,0.00864649,0.002876874,-1.221198,-1.860178,-9.874009,0,0,38.3694,1,1,1000,1000
481505,29:42.0,IMU,333165014,0,0.000683268,0.00540055,0.002635086,-1.251052,-1.858302,-9.861235,0,0,38.37028,1,1,1000,1000
481559,29:42.0,IMU,333204998,0,0.001032794,0.002926833,0.002352634,-1.280164,-1.85815,-9.847849,0,0,38.37114,1,1,1000,1000
481658,29:42.1,IMU,333244982,0,0.001344942,-0.000281776,0.002314081,-1.308916,-1.856739,-9.834482,0,0,38.37203,1,1,1000,1000
481710,29:42.1,IMU,333284966,0,0.001215187,-0.001602763,0.002224117,-1.337163,-1.857299,-9.821948,0,0,38.37291,1,1,1000,1000
481762,29:42.1,IMU,333324950,0,-0.001993263,-0.003116016,0.002159552,-1.365108,-1.856141,-9.813929,0,0,38.37379,1,1,1000,1000
481862,29:42.2,IMU,333364934,0,-0.003658323,-0.003906523,0.002302352,-1.392627,-1.855826,-9.808018,0,0,38.37468,1,1,1000,1000
481918,29:42.2,IMU,333404918,0,-0.002860254,-0.004847449,0.002520154,-1.420851,-1.85451,-9.795362,0,0,38.37556,1,1,1000,1000
482018,29:42.3,IMU,333444902,0,-0.000952821,-0.005357089,0.002716888,-1.447858,-1.854248,-9.784261,0,0,38.37645,1,1,1000,1000
482072,29:42.3,IMU,333484886,0,0.000183299,-0.006167159,0.00290173,-1.474816,-1.853478,-9.773426,0,0,38.37733,1,1,1000,1000
482124,29:42.3,IMU,333524870,0,0.001916053,-0.005859134,0.003086117,-1.502151,-1.852657,-9.764013,0,0,38.37821,1,1,1000,1000
482225,29:42.4,IMU,333564854,0,0.003503144,-0.005930078,0.003292586,-1.527566,-1.851824,-9.751701,0,0,38.37909,1,1,1000,1000
482279,29:42.4,IMU,333604838,0,0.004130453,-0.00519312,0.003386917,-1.554348,-1.850583,-9.741991,0,0,38.37998,1,1,1000,1000
482378,29:42.5,IMU,333644822,0,0.004170491,-0.004465186,0.003488859,-1.578908,-1.84868,-9.735164,0,0,38.38086,1,1,1000,1000
482429,29:42.5,IMU,333684806,0,0.004261889,-0.002804211,0.003574956,-1.604748,-1.847081,-9.724501,0,0,38.38174,1,1,1000,1000
482481,29:42.5,IMU,333724790,0,0.004352349,-0.000324099,0.003361807,-1.630099,-1.846648,-9.713587,0,0,38.38263,1,1,1000,1000
482580,29:42.6,IMU,333764774,0,0.004544586,-4.81e-05,0.003273703,-1.654885,-1.846325,-9.703527,0,0,38.38351,1,1,1000,1000
482634,29:42.6,IMU,333804758,0,0.00445961,0.000483106,0.002945207,-1.67907,-1.843858,-9.69213,0,0,38.38439,1,1,1000,1000
482733,29:42.7,IMU,333844742,0,0.002936458,0.003335066,0.002740961,-1.702896,-1.843687,-9.681696,0,0,38.38527,1,1,1000,1000
482785,29:42.7,IMU,333884726,0,0.002273601,0.002426573,0.002535604,-1.726699,-1.843146,-9.669868,0,0,38.38615,1,1,1000,1000
482837,29:42.7,IMU,333924710,0,0.002546872,0.000390227,0.002690371,-1.751129,-1.841841,-9.659561,0,0,38.38704,1,1,1000,1000
482937,29:42.8,IMU,333964694,0,0.003824519,0.002455304,0.002826334,-1.774019,-1.840952,-9.650379,0,0,38.38792,1,1,1000,1000
482991,29:42.8,IMU,334004678,0,0.005039115,0.004828483,0.002914543,-1.795909,-1.841545,-9.644001,0,0,38.3888,1,1,1000,1000
483092,29:42.9,IMU,334044662,0,0.004724155,0.008671934,0.002917972,-1.819052,-1.839222,-9.626362,0,0,38.38968,1,1,1000,1000
483143,29:42.9,IMU,334084646,0,0.006060405,0.01136311,0.002615755,-1.84069,-1.838917,-9.620791,0,0,38.39056,1,1,1000,1000
483195,29:42.9,IMU,334124630,0,0.008050168,0.01251063,0.002434322,-1.864179,-1.838316,-9.609585,0,0,38.39144,1,1,999,999
483294,29:43.0,IMU,334164614,0,0.008234738,0.01403982,0.002287767,-1.885504,-1.83858,-9.601905,0,0,38.39232,1,1,999,999
483348,29:43.0,IMU,334204598,0,0.005830706,0.01540866,0.002205268,-1.906422,-1.835521,-9.589615,0,0,38.3932,1,1,999,999
483447,29:43.1,IMU,334244582,0,0.006136843,0.01795616,0.001826879,-1.927368,-1.834488,-9.579386,0,0,38.39408,1,1,999,999
483499,29:43.1,IMU,334285399,0,0.00590957,0.02487293,0.001396506,-1.947919,-1.83414,-9.573503,0,0,38.39499,1,1,999,999
483551,29:43.1,IMU,334325383,0,0.005692482,0.02862255,0.001347386,-1.968557,-1.834233,-9.560148,0,0,38.39587,1,1,999,999
483654,29:43.2,IMU,334365367,0,0.006506128,0.02567993,0.001457009,-1.987842,-1.832949,-9.550763,0,0,38.39675,1,1,999,999
483710,29:43.2,IMU,334405351,0,0.008733579,0.02330441,0.001413227,-2.007519,-1.831736,-9.539036,0,0,38.39763,1,1,999,999
483810,29:43.3,IMU,334445335,0,0.008971473,0.02665705,0.000906554,-2.025178,-1.832249,-9.532106,0,0,38.39851,1,1,999,999
483864,29:43.3,IMU,334485319,0,0.007809049,0.0304613,0.000544701,-2.044212,-1.831048,-9.518394,0,0,38.39939,1,1,999,999
483916,29:43.3,IMU,334525303,0,0.00745273,0.03365595,5.398693e-05,-2.06106,-1.829517,-9.514143,0,0,38.40027,1,1,999,999
484017,29:43.4,IMU,334565287,0,0.007073689,0.03688371,-0.00041942,-2.078092,-1.831568,-9.509856,0,0,38.40115,1,1,999,999
484071,29:43.4,IMU,334605271,0,0.007849278,0.03468832,-0.000201037,-2.093946,-1.829683,-9.493221,0,0,38.40203,1,1,999,999
484170,29:43.5,IMU,334645255,0,0.00764715,0.03421646,-0.000358853,-2.110404,-1.829275,-9.486471,0,0,38.40291,1,1,999,999
484221,29:43.5,IMU,334685239,0,0.006379683,0.03721449,-0.00046639,-2.12724,-1.82978,-9.481264,0,0,38.40379,1,1,999,999
484273,29:43.5,IMU,334725223,0,0.008253624,0.03866169,-0.000737051,-2.140861,-1.829546,-9.468975,0,0,38.40465,1,1,999,999
484372,29:43.6,IMU,334765207,0,0.007697736,0.03873653,-0.000956356,-2.155505,-1.829603,-9.464969,0,0,38.40553,1,1,999,999
484426,29:43.6,IMU,334805191,0,0.007499849,0.03993377,-0.000731696,-2.169204,-1.830048,-9.462107,0,0,38.4064,1,1,999,999
484524,29:43.7,IMU,334845175,0,0.006868336,0.04372051,-0.001033065,-2.181581,-1.829301,-9.44104,0,0,38.40728,1,1,999,999
484576,29:43.7,IMU,334885159,0,0.009144729,0.04717857,-0.001470012,-2.196246,-1.829031,-9.433287,0,0,38.40816,1,1,999,999
484629,29:43.7,IMU,334925143,0,0.00848417,0.05203441,-0.001717228,-2.208621,-1.830881,-9.437201,0,0,38.40904,1,1,999,999
484729,29:43.8,IMU,334965127,0,0.008242149,0.05347076,-0.001648619,-2.220057,-1.829552,-9.427479,0,0,38.40992,1,1,999,999
484783,29:43.8,IMU,335005111,0,0.007408708,0.05323647,-0.001992046,-2.230757,-1.830285,-9.412909,0,0,38.4108,1,1,999,999
484884,29:43.9,IMU,335045095,0,0.007069145,0.05756582,-0.002236136,-2.241405,-1.830376,-9.412998,0,0,38.41167,1,1,999,999
484935,29:43.9,IMU,335085079,0,0.006822355,0.06280764,-0.002453513,-2.251922,-1.831359,-9.406797,0,0,38.41256,1,1,999,999
484987,29:43.9,IMU,335125063,0,0.005901586,0.06173695,-0.002544063,-2.261131,-1.830513,-9.398568,0,0,38.41346,1,1,1000,1000
485086,29:44.0,IMU,335165047,0,0.007890468,0.06972453,-0.003086946,-2.271384,-1.832994,-9.394659,0,0,38.41433,1,1,1000,1000
485140,29:44.0,IMU,335205031,0,0.009955781,0.06641952,-0.003328585,-2.276799,-1.832721,-9.376112,0,0,38.41521,1,1,1000,1000
485239,29:44.1,IMU,335245015,0,0.006675661,0.05785359,-0.003216779,-2.285998,-1.832166,-9.372498,0,0,38.41609,1,1,1000,1000
485291,29:44.1,IMU,335284999,0,0.006445867,0.04401048,-0.002948786,-2.291306,-1.8346,-9.376289,0,0,38.41695,1,1,1000,1000
485343,29:44.1,IMU,335324983,0,0.006302343,0.03130564,-0.002490247,-2.296251,-1.834602,-9.365302,0,0,38.41782,1,1,1000,1000
485442,29:44.2,IMU,335364967,0,0.005927629,0.01853874,-0.001731467,-2.299709,-1.835531,-9.367435,0,0,38.4187,1,1,1000,1000
485499,29:44.2,IMU,335404951,0,0.00571669,0.006448555,-0.000788636,-2.301525,-1.836286,-9.358463,0,0,38.41958,1,1,1000,1000
485599,29:44.3,IMU,335444935,0,0.005485155,-0.003959923,0.000189116,-2.301963,-1.838026,-9.358837,0,0,38.42046,1,1,1000,1000
485653,29:44.3,IMU,335484919,0,0.005344449,-0.006356528,0.000890055,-2.304799,-1.83826,-9.355429,0,0,38.42133,1,1,1000,1000
485705,29:44.3,IMU,335524903,0,0.005160367,-0.00459986,0.001466702,-2.305919,-1.839028,-9.354365,0,0,38.42221,1,1,1000,1000
485806,29:44.4,IMU,335564887,0,0.005012928,0.000747101,0.001864883,-2.30692,-1.840433,-9.353437,0,0,38.42309,1,1,1000,1000
485860,29:44.4,IMU,335604871,0,0.004854281,0.008691832,0.001998723,-2.309313,-1.841113,-9.350074,0,0,38.42396,1,1,1000,1000
485959,29:44.5,IMU,335644855,0,0.004830454,0.02291824,0.00208524,-2.312419,-1.841297,-9.351662,0,0,38.42484,1,1,1000,1000
486010,29:44.5,IMU,335684839,0,0.007582044,0.03884625,0.001865292,-2.316351,-1.84225,-9.352326,0,0,38.42572,1,1,1000,1000
486062,29:44.5,IMU,335724823,0,0.01199,0.05368644,0.001397026,-2.321286,-1.843526,-9.352755,0,0,38.42659,1,1,1000,1000
486161,29:44.6,IMU,335764807,0,0.008892439,0.06564678,0.000741833,-2.326004,-1.842531,-9.351349,0,0,38.42747,1,1,1000,1000
486215,29:44.6,IMU,335804791,0,0.0122004,0.07464498,-0.000235328,-2.33067,-1.843148,-9.35171,0,0,38.42834,1,1,1000,1000
486313,29:44.7,IMU,335844775,0,0.01298705,0.08178757,-0.001098646,-2.334528,-1.843318,-9.347007,0,0,38.42922,1,1,1000,1000
486364,29:44.7,IMU,335884759,0,0.01216983,0.08953112,-0.002171523,-2.339328,-1.843083,-9.349017,0,0,38.4301,1,1,1000,1000
486418,29:44.7,IMU,335924743,0,0.01220331,0.09579562,-0.003283773,-2.343115,-1.844211,-9.335857,0,0,38.43097,1,1,1000,1000
486518,29:44.8,IMU,335964727,0,0.01131048,0.1021509,-0.00425369,-2.344017,-1.844604,-9.340985,0,0,38.43185,1,1,1000,1000
486574,29:44.8,IMU,336004711,0,0.01225741,0.0977329,-0.00487651,-2.345536,-1.845602,-9.330242,0,0,38.43272,1,1,1000,1000
486675,29:44.9,IMU,336044695,0,0.0114174,0.1005943,-0.005700481,-2.346486,-1.84566,-9.332392,0,0,38.4336,1,1,1000,1000
486726,29:44.9,IMU,336084679,0,0.008811045,0.1072197,-0.006434755,-2.345679,-1.847091,-9.327506,0,0,38.43448,1,1,1000,1000
486778,29:44.9,IMU,336124663,0,0.007296849,0.1090984,-0.007117734,-2.344405,-1.849974,-9.323982,0,0,38.43535,1,1,999,999
486877,29:45.0,IMU,336164647,0,0.009242195,0.1127323,-0.007734231,-2.342965,-1.850647,-9.329833,0,0,38.43623,1,1,999,999
486931,29:45.0,IMU,336204631,0,0.007184077,0.1163346,-0.008365158,-2.338028,-1.853659,-9.318922,0,0,38.4371,1,1,999,999
487030,29:45.1,IMU,336244615,0,0.008684264,0.1187231,-0.00882475,-2.336191,-1.854974,-9.328397,0,0,38.43798,1,1,999,999
487082,29:45.1,IMU,336284599,0,0.007233749,0.1203371,-0.00910477,-2.329862,-1.855386,-9.315749,0,0,38.43885,1,1,999,999
487134,29:45.1,IMU,336324583,0,0.008037858,0.1217569,-0.009485116,-2.325905,-1.858944,-9.32127,0,0,38.43973,1,1,999,999
487233,29:45.2,IMU,336365400,0,0.008579847,0.1240137,-0.009616369,-2.317618,-1.860095,-9.313646,0,0,38.44062,1,1,999,999
487290,29:45.2,IMU,336405384,0,0.01010913,0.1288144,-0.009904726,-2.310446,-1.861349,-9.322635,0,0,38.4415,1,1,999,999
487391,29:45.3,IMU,336445368,0,0.00988576,0.1316592,-0.00994695,-2.302714,-1.86437,-9.316658,0,0,38.44237,1,1,999,999
487445,29:45.3,IMU,336485352,0,0.008656465,0.1300024,-0.01001303,-2.292759,-1.864896,-9.319386,0,0,38.44324,1,1,999,999
487497,29:45.3,IMU,336525336,0,0.008418507,0.1333095,-0.0100572,-2.28171,-1.867876,-9.315814,0,0,38.44412,1,1,999,999
487598,29:45.4,IMU,336565320,0,0.007841795,0.1323434,-0.01009839,-2.269168,-1.869172,-9.320483,0,0,38.445,1,1,999,999
487652,29:45.4,IMU,336605304,0,0.009398624,0.1356578,-0.01015048,-2.256976,-1.872141,-9.322853,0,0,38.44587,1,1,999,999
487751,29:45.5,IMU,336645288,0,0.01180862,0.1378196,-0.0104304,-2.244532,-1.873096,-9.320385,0,0,38.44674,1,1,999,999
487802,29:45.5,IMU,336685272,0,0.009407749,0.1391866,-0.01012318,-2.231235,-1.875457,-9.322058,0,0,38.44762,1,1,999,999
487854,29:45.5,IMU,336725256,0,0.008589201,0.1410609,-0.01037591,-2.215727,-1.877733,-9.329976,0,0,38.44849,1,1,999,999
487953,29:45.6,IMU,336765240,0,0.01165858,0.1403937,-0.01043767,-2.199934,-1.880091,-9.327114,0,0,38.44936,1,1,999,999
488007,29:45.6,IMU,336805224,0,0.01066982,0.141144,-0.01047004,-2.183427,-1.882315,-9.335964,0,0,38.45021,1,1,999,999
488105,29:45.7,IMU,336845208,0,0.01040437,0.143637,-0.01055744,-2.166162,-1.8854,-9.339637,0,0,38.45109,1,1,999,999
488156,29:45.7,IMU,336885192,0,0.01157507,0.1461336,-0.01059552,-2.146402,-1.886476,-9.331755,0,0,38.45196,1,1,999,999
488210,29:45.7,IMU,336925176,0,0.01073395,0.1524168,-0.0108975,-2.12828,-1.888867,-9.348152,0,0,38.45284,1,1,999,999
488310,29:45.8,IMU,336965160,0,0.01168901,0.1565627,-0.01101705,-2.109108,-1.891907,-9.352581,0,0,38.45371,1,1,999,999
488364,29:45.8,IMU,337005144,0,0.01205803,0.1596988,-0.01145747,-2.088044,-1.894082,-9.355801,0,0,38.45458,1,1,999,999
488466,29:45.9,IMU,337045128,0,0.01109155,0.1654987,-0.01164511,-2.067523,-1.896626,-9.368074,0,0,38.45545,1,1,999,999
488517,29:45.9,IMU,337085112,0,0.01038237,0.1691199,-0.01204571,-2.045051,-1.897441,-9.359829,0,0,38.45633,1,1,999,999
488569,29:45.9,IMU,337125096,0,0.009876732,0.1680053,-0.01216571,-2.022851,-1.901972,-9.373508,0,0,38.4572,1,1,999,999
488668,29:46.0,IMU,337165080,0,0.01064123,0.1720888,-0.01236367,-1.997722,-1.904002,-9.384094,0,0,38.45807,1,1,999,999
488722,29:46.0,IMU,337205064,0,0.01137287,0.1749564,-0.01280833,-1.972823,-1.907575,-9.379224,0,0,38.45896,1,1,999,999
488820,29:46.1,IMU,337245048,0,0.01062524,0.1810368,-0.01329394,-1.949044,-1.910138,-9.398279,0,0,38.45984,1,1,999,999
488873,29:46.1,IMU,337285032,0,0.008770723,0.1846216,-0.01342965,-1.921466,-1.912557,-9.39934,0,0,38.46071,1,1,999,999
488925,29:46.1,IMU,337325016,0,0.0104006,0.1856588,-0.0140023,-1.893914,-1.91399,-9.404457,0,0,38.46158,1,1,999,999
489024,29:46.2,IMU,337365000,0,0.009667723,0.1834259,-0.01411378,-1.865936,-1.918414,-9.418344,0,0,38.46245,1,1,999,999
489079,29:46.2,IMU,337404984,0,0.009394558,0.1830378,-0.01414636,-1.836994,-1.921453,-9.425008,0,0,38.4633,1,1,999,999
489181,29:46.3,IMU,337444968,0,0.008458279,0.187705,-0.01449896,-1.806337,-1.924258,-9.43325,0,0,38.46417,1,1,999,999
489235,29:46.3,IMU,337484952,0,0.01084855,0.1901213,-0.01473295,-1.776099,-1.927734,-9.433244,0,0,38.46504,1,1,999,999
489287,29:46.3,IMU,337524936,0,0.01008699,0.192316,-0.01494541,-1.744545,-1.930813,-9.448341,0,0,38.46592,1,1,999,999
489388,29:46.4,IMU,337564920,0,0.009505374,0.1916919,-0.0150079,-1.711656,-1.934154,-9.464941,0,0,38.46679,1,1,999,999
489443,29:46.4,IMU,337604904,0,0.01114899,0.1953871,-0.01510258,-1.678725,-1.937371,-9.468811,0,0,38.46766,1,1,999,999
489541,29:46.5,IMU,337644888,0,0.01003836,0.2003531,-0.01537177,-1.64518,-1.938731,-9.475546,0,0,38.46853,1,1,999,999
489592,29:46.5,IMU,337684872,0,0.007723014,0.202454,-0.01565873,-1.611308,-1.942355,-9.483742,0,0,38.4694,1,1,999,999
489644,29:46.5,IMU,337724856,0,0.007404408,0.2043516,-0.01596733,-1.576671,-1.946394,-9.497641,0,0,38.47027,1,1,999,999
489743,29:46.6,IMU,337764840,0,0.007130253,0.2050829,-0.0161289,-1.54093,-1.948684,-9.507376,0,0,38.47114,1,1,999,999
489797,29:46.6,IMU,337804824,0,0.00752757,0.2048909,-0.01612125,-1.503826,-1.952964,-9.519737,0,0,38.47201,1,1,999,999
489895,29:46.7,IMU,337844808,0,0.00822519,0.205627,-0.01625598,-1.467084,-1.954618,-9.530642,0,0,38.47288,1,1,999,999
489946,29:46.7,IMU,337884792,0,0.01122279,0.2068225,-0.01649653,-1.429504,-1.958046,-9.539218,0,0,38.47375,1,1,999,999
489998,29:46.7,IMU,337924776,0,0.01364999,0.2106059,-0.01660125,-1.391554,-1.960917,-9.54663,0,0,38.47462,1,1,999,999
490100,29:46.8,IMU,337964760,0,0.01683547,0.2161832,-0.01670236,-1.354772,-1.962979,-9.555115,0,0,38.47549,1,1,999,999
490154,29:46.8,IMU,338004744,0,0.0219209,0.2249897,-0.01693354,-1.314232,-1.964052,-9.562916,0,0,38.47636,1,1,999,999
490255,29:46.9,IMU,338044728,0,0.0281909,0.2367168,-0.01719648,-1.275095,-1.968075,-9.578321,0,0,38.47723,1,1,999,999
490306,29:46.9,IMU,338084712,0,0.03456637,0.2450651,-0.01716539,-1.236663,-1.970155,-9.592886,0,0,38.4781,1,1,999,999
490358,29:46.9,IMU,338124696,0,0.04581011,0.2527906,-0.01696894,-1.196248,-1.972878,-9.607487,0,0,38.47897,1,1,1000,1000
490457,29:47.0,IMU,338164680,0,0.05624439,0.2552979,-0.01580163,-1.156055,-1.975389,-9.610241,0,0,38.47984,1,1,1000,1000
490511,29:47.0,IMU,338204664,0,0.06154266,0.2517195,-0.01364649,-1.115357,-1.978699,-9.626219,0,0,38.48071,1,1,1000,1000
490610,29:47.1,IMU,338244648,0,0.06586245,0.2473208,-0.01076577,-1.072707,-1.981667,-9.640502,0,0,38.48158,1,1,1000,1000
490662,29:47.1,IMU,338284632,0,0.06914993,0.2423055,-0.0069427,-1.032141,-1.983561,-9.642205,0,0,38.48245,1,1,1000,1000
490714,29:47.1,IMU,338324616,0,0.07124615,0.2320071,-0.002209349,-0.9897814,-1.987303,-9.657739,0,0,38.48331,1,1,1000,1000
490813,29:47.2,IMU,338364600,0,0.07426512,0.2245053,0.003245564,-0.9478688,-1.990637,-9.673253,0,0,38.48418,1,1,1000,1000
490868,29:47.2,IMU,338404584,0,0.07697834,0.2160947,0.009386615,-0.9074337,-1.992796,-9.680622,0,0,38.48505,1,1,1000,1000
490970,29:47.3,IMU,338445401,0,0.07930492,0.2126676,0.01637582,-0.8654235,-1.996897,-9.687428,0,0,38.48594,1,1,1000,1000
491027,29:47.3,IMU,338485385,0,0.07936914,0.2095627,0.02365851,-0.8260007,-2.00189,-9.698938,0,0,38.48681,1,1,1000,1000
491079,29:47.3,IMU,338525369,0,0.0800677,0.2044731,0.0317899,-0.784545,-2.004464,-9.701031,0,0,38.48768,1,1,1000,1000
491180,29:47.4,IMU,338565353,0,0.08086076,0.2015177,0.04007435,-0.7465754,-2.008733,-9.716115,0,0,38.48855,1,1,1000,1000
491235,29:47.4,IMU,338605337,0,0.08169179,0.1997495,0.04893225,-0.7070458,-2.013293,-9.714578,0,0,38.48942,1,1,1000,1000
491333,29:47.5,IMU,338645321,0,0.08188552,0.1985492,0.05828217,-0.670384,-2.017774,-9.723534,0,0,38.49029,1,1,1000,1000
491384,29:47.5,IMU,338685305,0,0.08259085,0.1966628,0.0682174,-0.6342077,-2.022946,-9.732948,0,0,38.49115,1,1,1000,1000
491436,29:47.5,IMU,338725289,0,0.08379639,0.1984948,0.07844982,-0.5999095,-2.027107,-9.735398,0,0,38.49202,1,1,1000,1000
491535,29:47.6,IMU,338765273,0,0.08459646,0.1979794,0.08962321,-0.5649099,-2.033487,-9.744447,0,0,38.49289,1,1,1000,1000
491589,29:47.6,IMU,338805257,0,0.08691845,0.1961747,0.1015612,-0.5300046,-2.037601,-9.74616,0,0,38.49376,1,1,1000,1000
491687,29:47.7,IMU,338845241,0,0.08774924,0.1962788,0.1142915,-0.498625,-2.044851,-9.751434,0,0,38.49463,1,1,1000,1000
491738,29:47.7,IMU,338885225,0,0.08810849,0.1954031,0.1278175,-0.4676415,-2.050623,-9.757116,0,0,38.49547,1,1,1000,1000
491790,29:47.7,IMU,338925209,0,0.0890567,0.1929541,0.1429802,-0.4379031,-2.059034,-9.766068,0,0,38.49634,1,1,1000,1000
491891,29:47.8,IMU,338965193,0,0.09109525,0.1913162,0.1596008,-0.4097472,-2.065795,-9.764639,0,0,38.4972,1,1,1000,1000
491945,29:47.8,IMU,339005177,0,0.09347407,0.1905203,0.1779262,-0.3822721,-2.074449,-9.771544,0,0,38.49807,1,1,1000,1000
492046,29:47.9,IMU,339045161,0,0.09531039,0.1892905,0.1982556,-0.3567164,-2.083749,-9.775928,0,0,38.49894,1,1,1000,1000
492097,29:47.9,IMU,339085145,0,0.09636941,0.1882755,0.2208798,-0.3323817,-2.093032,-9.780849,0,0,38.49981,1,1,1000,1000
492149,29:47.9,IMU,339125129,0,0.09807811,0.1866445,0.2464232,-0.310532,-2.103467,-9.785531,0,0,38.50067,1,1,999,999
492248,29:48.0,IMU,339165113,0,0.100292,0.1811036,0.2752407,-0.2893977,-2.113534,-9.788015,0,0,38.50154,1,1,999,999
492302,29:48.0,IMU,339205097,0,0.1042466,0.1711033,0.3081362,-0.2721448,-2.125501,-9.791229,0,0,38.5024,1,1,999,999
492400,29:48.1,IMU,339245081,0,0.1056906,0.1595079,0.3456325,-0.2559848,-2.1363,-9.79654,0,0,38.50327,1,1,999,999
492453,29:48.1,IMU,339285065,0,0.1071146,0.1461233,0.3887078,-0.2412024,-2.15018,-9.796378,0,0,38.50416,1,1,999,999
492505,29:48.1,IMU,339325049,0,0.1076743,0.1299719,0.4384465,-0.2308826,-2.163817,-9.798227,0,0,38.50502,1,1,999,999
492604,29:48.2,IMU,339365033,0,0.1092103,0.1145126,0.4951938,-0.2241285,-2.176348,-9.793785,0,0,38.50589,1,1,999,999
492659,29:48.2,IMU,339405017,0,0.1108013,0.1005879,0.5606027,-0.2202191,-2.191096,-9.789321,0,0,38.50676,1,1,999,999
492762,29:48.3,IMU,339445001,0,0.1118765,0.09071467,0.6358932,-0.220958,-2.202866,-9.782961,0,0,38.50762,1,1,999,999
492817,29:48.3,IMU,339484985,0,0.1127153,0.08258005,0.7221935,-0.2297643,-2.215065,-9.773311,0,0,38.50846,1,1,999,999
492869,29:48.3,IMU,339524969,0,0.1137661,0.07541323,0.8134966,-0.2439465,-2.230096,-9.763982,0,0,38.50933,1,1,999,999
492970,29:48.4,IMU,339564953,0,0.1167396,0.06964981,0.9010788,-0.2663839,-2.245529,-9.748907,0,0,38.5102,1,1,999,999
493024,29:48.4,IMU,339604937,0,0.1201093,0.06271899,0.9793689,-0.2940452,-2.260358,-9.736496,0,0,38.51106,1,1,999,999
493122,29:48.5,IMU,339644921,0,0.1487347,-0.04400489,1.049144,-0.3289644,-2.275182,-9.715775,0,0,38.51193,1,1,999,999
493173,29:48.5,IMU,339684905,0,0.2429774,-0.3632406,1.113442,-0.3650205,-2.283116,-9.685353,0,0,38.51279,1,1,999,999
493225,29:48.5,IMU,339724889,0,0.1225351,-0.1225287,1.143559,-0.4074114,-2.293355,-9.644287,0,0,38.51366,1,1,999,999
493324,29:48.6,IMU,339764873,0,0.01171387,0.1360423,1.161094,-0.4664307,-2.306039,-9.622467,0,0,38.51452,1,1,999,999
493378,29:48.6,IMU,339804857,0,-0.09898793,0.4020754,1.168954,-0.539387,-2.320315,-9.616852,0,0,38.51539,1,1,999,999
493476,29:48.7,IMU,339844841,0,-0.2096033,0.6499553,1.170393,-0.6286908,-2.337281,-9.630937,0,0,38.51625,1,1,999,999
493530,29:48.7,IMU,339884825,0,-0.3137942,0.8530073,1.16832,-0.7275316,-2.351008,-9.648615,0,0,38.51712,1,1,999,999
493582,29:48.7,IMU,339924809,0,-0.2358871,0.8408209,1.168023,-0.8312659,-2.355035,-9.677927,0,0,38.51798,1,1,999,999
493682,29:48.8,IMU,339964793,0,-0.03812135,0.230537,1.184591,-0.9132506,-2.338835,-9.664725,0,0,38.51884,1,1,999,999
493737,29:48.8,IMU,340004777,0,0.0399774,-0.01921679,1.185099,-0.9861444,-2.31604,-9.633705,0,0,38.51971,1,1,999,999
493839,29:48.9,IMU,340044761,0,0.05930292,-0.1692617,1.178942,-1.053669,-2.286757,-9.599495,0,0,38.52057,1,1,999,999
493891,29:48.9,IMU,340084745,0,0.04944018,-0.2544465,1.168085,-1.120601,-2.258367,-9.565144,0,0,38.52143,1,1,999,999
493943,29:48.9,IMU,340124729,0,0.03179234,-0.2922916,1.153641,-1.187689,-2.229261,-9.523117,0,0,38.5223,1,1,999,999
494042,29:49.0,IMU,340164713,0,0.0132268,-0.296713,1.137256,-1.258142,-2.199597,-9.488129,0,0,38.52316,1,1,999,999
494096,29:49.0,IMU,340204697,0,-0.005348196,-0.2882712,1.120783,-1.330728,-2.169008,-9.45691,0,0,38.52402,1,1,999,999
494194,29:49.1,IMU,340244681,0,-0.01990966,-0.2684362,1.104646,-1.410109,-2.139171,-9.433389,0,0,38.52489,1,1,999,999
494246,29:49.1,IMU,340284665,0,-0.03300509,-0.2408744,1.089716,-1.493573,-2.105011,-9.406083,0,0,38.52575,1,1,999,999
494298,29:49.1,IMU,340324649,0,-0.04181097,-0.2163533,1.076693,-1.582264,-2.070529,-9.390865,0,0,38.52662,1,1,999,999
494397,29:49.2,IMU,340364633,0,-0.04832289,-0.1916233,1.065688,-1.674903,-2.031015,-9.364545,0,0,38.52748,1,1,999,999
494452,29:49.2,IMU,340404617,0,-0.05300321,-0.1683663,1.056796,-1.773673,-1.989588,-9.355697,0,0,38.52834,1,1,999,999
494552,29:49.3,IMU,340444601,0,-0.05662265,-0.1475686,1.04984,-1.873471,-1.94518,-9.341344,0,0,38.52921,1,1,999,999
494608,29:49.3,IMU,340484585,0,-0.05795696,-0.1308818,1.044742,-1.978823,-1.89481,-9.330257,0,0,38.53007,1,1,999,999
494660,29:49.3,IMU,340525402,0,-0.05940326,-0.1156237,1.041157,-2.090464,-1.839579,-9.320856,0,0,38.53095,1,1,999,999
494761,29:49.4,IMU,340565386,0,-0.06168129,-0.103394,1.039382,-2.200955,-1.779465,-9.295895,0,0,38.53181,1,1,999,999
494815,29:49.4,IMU,340605370,0,-0.06337266,-0.092382,1.038716,-2.314993,-1.715622,-9.290484,0,0,38.53268,1,1,999,999
494913,29:49.5,IMU,340645354,0,-0.06521133,-0.0830947,1.038813,-2.430133,-1.648146,-9.276299,0,0,38.53354,1,1,999,999
494964,29:49.5,IMU,340685338,0,-0.06424297,-0.0775615,1.039677,-2.545844,-1.574131,-9.259868,0,0,38.5344,1,1,999,999
495016,29:49.5,IMU,340725322,0,-0.06683379,-0.07248749,1.041131,-2.661675,-1.497713,-9.236428,0,0,38.53526,1,1,999,999
495115,29:49.6,IMU,340765306,0,-0.06797403,-0.06452866,1.042868,-2.779765,-1.418062,-9.221825,0,0,38.53613,1,1,999,999
495169,29:49.6,IMU,340805290,0,-0.06878493,-0.0580084,1.04459,-2.896836,-1.332269,-9.202441,0,0,38.53699,1,1,999,999
495267,29:49.7,IMU,340845274,0,-0.07081795,-0.05618802,1.046537,-3.011448,-1.24458,-9.181742,0,0,38.53785,1,1,999,999
495318,29:49.7,IMU,340885258,0,-0.07339683,-0.05161982,1.048566,-3.123179,-1.15221,-9.150156,0,0,38.53871,1,1,999,999
495370,29:49.7,IMU,340925242,0,-0.07925817,-0.04693457,1.050469,-3.232949,-1.059521,-9.126708,0,0,38.53957,1,1,999,999
495470,29:49.8,IMU,340965226,0,-0.0781853,-0.04307435,1.051826,-3.335659,-0.965159,-9.100817,0,0,38.54041,1,1,999,999
495525,29:49.8,IMU,341005210,0,-0.07683373,-0.03751962,1.053262,-3.434899,-0.8675472,-9.059177,0,0,38.54128,1,1,999,999
495625,29:49.9,IMU,341045194,0,-0.07590188,-0.03201903,1.054247,-3.532525,-0.7700584,-9.026574,0,0,38.54213,1,1,999,999
495677,29:49.9,IMU,341085178,0,-0.07631123,-0.02780135,1.055612,-3.624588,-0.6718593,-9.005013,0,0,38.543,1,1,999,999
495729,29:49.9,IMU,341125162,0,-0.07127341,-0.022046,1.056452,-3.706547,-0.5734267,-8.959858,0,0,38.54386,1,1,1000,1000
495828,29:50.0,IMU,341165146,0,-0.07082583,-0.01645427,1.057091,-3.782318,-0.4763025,-8.923439,0,0,38.54472,1,1,1000,1000
495882,29:50.0,IMU,341205130,0,-0.06592976,-0.01307717,1.057567,-3.853322,-0.3823234,-8.895142,0,0,38.54558,1,1,1000,1000
495980,29:50.1,IMU,341245114,0,-0.05620541,-0.007235855,1.057684,-3.91454,-0.2881424,-8.863841,0,0,38.54644,1,1,1000,1000
496033,29:50.1,IMU,341285098,0,-0.05013613,-0.002916663,1.057618,-3.965318,-0.1976337,-8.827392,0,0,38.5473,1,1,1000,1000
496085,29:50.1,IMU,341325082,0,-0.03658866,-0.001444864,1.057228,-4.007754,-0.1135251,-8.80183,0,0,38.54816,1,1,1000,1000
496184,29:50.2,IMU,341365066,0,-0.02782588,0.003251504,1.056781,-4.039247,-0.02962041,-8.772945,0,0,38.54904,1,1,1000,1000
496239,29:50.2,IMU,341405050,0,-0.01327668,0.003117929,1.056168,-4.062988,0.05266597,-8.760671,0,0,38.5499,1,1,1000,1000
496339,29:50.3,IMU,341445034,0,0.001607277,0.003225039,1.049905,-4.076674,0.1411476,-8.742181,0,0,38.55076,1,1,1000,1000
496394,29:50.3,IMU,341485018,0,0.01638839,0.00244458,1.025749,-4.080551,0.2413403,-8.727541,0,0,38.55162,1,1,1000,1000
496448,29:50.3,IMU,341525002,0,0.02960633,0.000656145,0.9763176,-4.075335,0.3439217,-8.721782,0,0,38.55248,1,1,1000,1000
496549,29:50.4,IMU,341564986,0,0.04274587,-0.001450082,0.9002262,-4.059377,0.449178,-8.721855,0,0,38.55332,1,1,1000,1000
496603,29:50.4,IMU,341604970,0,0.05448667,-0.002802846,0.8028491,-4.034962,0.5526003,-8.719662,0,0,38.55418,1,1,1000,1000
496701,29:50.5,IMU,341644954,0,0.06141567,-0.00673495,0.6912678,-4.013323,0.6494241,-8.732583,0,0,38.55504,1,1,1000,1000
496752,29:50.5,IMU,341684938,0,0.06428067,-0.009663078,0.5726944,-3.992079,0.737304,-8.739582,0,0,38.5559,1,1,1000,1000
496804,29:50.5,IMU,341724922,0,0.06587959,-0.0111845,0.4532686,-3.974867,0.8107865,-8.74828,0,0,38.55676,1,1,1000,1000
496903,29:50.6,IMU,341764906,0,0.06537081,-0.01057259,0.3383365,-3.96636,0.8723923,-8.752781,0,0,38.55761,1,1,1000,1000
496957,29:50.6,IMU,341804890,0,0.06608433,-0.01234072,0.2314517,-3.967056,0.9209517,-8.759093,0,0,38.55847,1,1,1000,1000
497055,29:50.7,IMU,341844874,0,0.06319503,-0.01122379,0.1365429,-3.974394,0.9563764,-8.762134,0,0,38.55933,1,1,1000,1000
497106,29:50.7,IMU,341884858,0,0.05787073,-0.009964214,0.05500619,-3.989007,0.9800908,-8.764248,0,0,38.56019,1,1,1000,1000
497158,29:50.7,IMU,341924842,0,0.05322918,-0.009251347,-0.01257414,-4.009727,0.9911409,-8.765842,0,0,38.56105,1,1,1000,1000
497259,29:50.8,IMU,341964826,0,0.04861304,-0.007720888,-0.06613462,-4.034986,0.9929326,-8.762349,0,0,38.56191,1,1,1000,1000
497313,29:50.8,IMU,342004810,0,0.0448802,-0.006348383,-0.1064471,-4.063499,0.9867254,-8.76061,0,0,38.56277,1,1,1000,1000
497414,29:50.9,IMU,342044794,0,0.04068514,-0.004598958,-0.1343856,-4.095045,0.974585,-8.753755,0,0,38.56363,1,1,1000,1000
497466,29:50.9,IMU,342084778,0,0.03823043,-0.003268551,-0.1516999,-4.128261,0.9606098,-8.751686,0,0,38.56448,1,1,1000,1000
497518,29:50.9,IMU,342124762,0,0.03521154,-0.003371614,-0.1596713,-4.159766,0.9424279,-8.74301,0,0,38.56534,1,1,999,999
497617,29:51.0,IMU,342164746,0,0.03417519,-0.002222619,-0.1600787,-4.192423,0.9236255,-8.737207,0,0,38.5662,1,1,999,999
497671,29:51.0,IMU,342204730,0,0.03367765,-0.001991423,-0.1543992,-4.222042,0.9033672,-8.727287,0,0,38.56705,1,1,999,999
497769,29:51.1,IMU,342244714,0,0.03281574,-0.00116921,-0.1440245,-4.251686,0.8869219,-8.721136,0,0,38.56791,1,1,999,999
497821,29:51.1,IMU,342284698,0,0.03110188,7.792481e-05,-0.1305561,-4.279032,0.8697459,-8.712461,0,0,38.56877,1,1,999,999
497873,29:51.1,IMU,342324682,0,0.02961387,-0.000858037,-0.1151021,-4.304379,0.8543426,-8.706602,0,0,38.56963,1,1,999,999
497972,29:51.2,IMU,342364666,0,0.02858866,0.001180175,-0.09866227,-4.328052,0.8409679,-8.703142,0,0,38.57049,1,1,999,999
498027,29:51.2,IMU,342404650,0,0.02837968,-0.001254607,-0.08202173,-4.350986,0.8309997,-8.700145,0,0,38.57134,1,1,999,999
498127,29:51.3,IMU,342444634,0,0.02547068,0.003021007,-0.06576982,-4.37024,0.8193455,-8.68927,0,0,38.5722,1,1,999,999
498183,29:51.3,IMU,342484618,0,0.02299421,0.004263438,-0.05053129,-4.387441,0.8118556,-8.684839,0,0,38.57306,1,1,999,999
498235,29:51.3,IMU,342524602,0,0.01740861,0.003702117,-0.03651459,-4.405509,0.8064553,-8.681766,0,0,38.57391,1,1,999,999
498337,29:51.4,IMU,342564586,0,0.01305082,0.005163684,-0.0241657,-4.419972,0.8020554,-8.672625,0,0,38.57477,1,1,999,999
498392,29:51.4,IMU,342605403,0,0.01133103,0.002218789,-0.01335364,-4.435537,0.7974487,-8.679637,0,0,38.57565,1,1,999,999
498490,29:51.5,IMU,342645387,0,0.006276373,0.003256335,-0.004477949,-4.447747,0.7946053,-8.668803,0,0,38.57651,1,1,999,999
498541,29:51.5,IMU,342685371,0,0.001861987,0.005746061,0.002799433,-4.459383,0.7934279,-8.666495,0,0,38.57736,1,1,999,999
498593,29:51.5,IMU,342725355,0,0.000943602,0.003581264,0.008253558,-4.471939,0.7934892,-8.67293,0,0,38.57822,1,1,999,999
498692,29:51.6,IMU,342765339,0,0.003304723,0.005642573,0.01227666,-4.483181,0.7930576,-8.665647,0,0,38.57907,1,1,999,999
498746,29:51.6,IMU,342805323,0,-0.000702473,0.006139068,0.01531148,-4.492133,0.7936491,-8.656138,0,0,38.57993,1,1,999,999
498844,29:51.7,IMU,342845307,0,-0.000936881,0.004944812,0.01682455,-4.502596,0.7949827,-8.663434,0,0,38.58079,1,1,999,999
498895,29:51.7,IMU,342885291,0,-0.004195958,0.006408092,0.01803856,-4.511537,0.7957523,-8.657832,0,0,38.58164,1,1,999,999
498947,29:51.7,IMU,342925275,0,-0.00317763,0.004503213,0.01793856,-4.520583,0.7957479,-8.661125,0,0,38.5825,1,1,999,999
499046,29:51.8,IMU,342965259,0,-0.004161362,0.005137703,0.01764856,-4.528084,0.7967758,-8.655058,0,0,38.58335,1,1,999,999
499101,29:51.8,IMU,343005243,0,-0.003249003,0.004156308,0.01679965,-4.539122,0.7972156,-8.665827,0,0,38.58421,1,1,999,999
499202,29:51.9,IMU,343045227,0,-0.003225337,0.004116525,0.01553378,-4.545076,0.7990977,-8.651487,0,0,38.58504,1,1,999,999
499254,29:51.9,IMU,343085211,0,-0.005373986,0.004085743,0.01437083,-4.552028,0.7994488,-8.647472,0,0,38.5859,1,1,999,999
499306,29:51.9,IMU,343125195,0,-0.006555723,0.007258317,0.01319163,-4.558756,0.7997595,-8.652341,0,0,38.58675,1,1,1000,1000
499405,29:52.0,IMU,343165179,0,-0.008328585,0.008824283,0.0118008,-4.567269,0.799715,-8.652968,0,0,38.58761,1,1,1000,1000
499459,29:52.0,IMU,343205163,0,-0.007639017,0.008235144,0.01037162,-4.576616,0.8000628,-8.655846,0,0,38.58846,1,1,1000,1000
499557,29:52.1,IMU,343245147,0,-0.008196164,0.008079157,0.008850842,-4.582987,0.8016225,-8.653195,0,0,38.58932,1,1,1000,1000
499610,29:52.1,IMU,343285131,0,-0.008754179,0.007654373,0.007481836,-4.591292,0.802008,-8.653015,0,0,38.59017,1,1,1000,1000
499662,29:52.1,IMU,343325115,0,-0.004744468,0.007186984,0.006249576,-4.59901,0.8012886,-8.656461,0,0,38.59103,1,1,1000,1000
499761,29:52.2,IMU,343365099,0,-0.003878501,0.006776575,0.005361383,-4.604685,0.8000124,-8.651243,0,0,38.59188,1,1,1000,1000
499816,29:52.2,IMU,343405083,0,-0.003012901,0.006370811,0.004436219,-4.611004,0.8007743,-8.648791,0,0,38.59274,1,1,1000,1000
499916,29:52.3,IMU,343445067,0,-0.002203266,0.006100226,0.003666514,-4.61734,0.8003743,-8.646355,0,0,38.59359,1,1,1000,1000
499971,29:52.3,IMU,343485051,0,-0.005178528,0.005854334,0.003213301,-4.621714,0.8000798,-8.644045,0,0,38.59447,1,1,1000,1000
500023,29:52.3,IMU,343525035,0,-0.004999004,0.005573451,0.002724802,-4.629695,0.7998736,-8.649031,0,0,38.59532,1,1,1000,1000
500125,29:52.4,IMU,343565019,0,-0.005313733,0.005362754,0.002615392,-4.635826,0.8001378,-8.647165,0,0,38.59618,1,1,1000,1000
500179,29:52.4,IMU,343605003,0,-0.00426372,0.005145496,0.002628956,-4.641273,0.8008031,-8.649005,0,0,38.59703,1,1,1000,1000
500277,29:52.5,IMU,343644987,0,-0.003690743,0.004949232,0.002666241,-4.645894,0.7984257,-8.647889,0,0,38.59786,1,1,1000,1000
500328,29:52.5,IMU,343684971,0,-0.002771936,0.004818989,0.002679583,-4.651562,0.7995833,-8.643751,0,0,38.59871,1,1,1000,1000
500380,29:52.5,IMU,343724955,0,-0.001948797,0.004681333,0.002810187,-4.655438,0.7992785,-8.640324,0,0,38.59957,1,1,1000,1000
500479,29:52.6,IMU,343764939,0,-0.001354681,0.004603009,0.002843184,-4.659562,0.7993297,-8.637756,0,0,38.60042,1,1,1000,1000
500533,29:52.6,IMU,343804923,0,-0.000315284,0.004421456,0.003081182,-4.665452,0.7995448,-8.644479,0,0,38.60127,1,1,1000,1000
500631,29:52.7,IMU,343844907,0,0.001141097,0.005218615,0.003549235,-4.671323,0.8000166,-8.645689,0,0,38.60213,1,1,1000,1000
500682,29:52.7,IMU,343884891,0,0.002411417,0.007291012,0.003573728,-4.67548,0.8005072,-8.648562,0,0,38.60298,1,1,1000,1000
500735,29:52.7,IMU,343924875,0,0.001759942,0.006360807,0.003724768,-4.678024,0.8018441,-8.643668,0,0,38.60383,1,1,1000,1000
500834,29:52.8,IMU,343964859,0,0.002572902,0.004652671,0.003736049,-4.683298,0.8006089,-8.650015,0,0,38.60469,1,1,1000,1000
500889,29:52.8,IMU,344004843,0,0.003485904,0.003111956,0.003542017,-4.686926,0.8023921,-8.643067,0,0,38.60554,1,1,1000,1000
500991,29:52.9,IMU,344044827,0,0.003796666,0.004755632,0.003403962,-4.690214,0.8030633,-8.646163,0,0,38.60639,1,1,1000,1000
501044,29:52.9,IMU,344084811,0,0.004440322,0.00464169,0.003191756,-4.693642,0.8039336,-8.641691,0,0,38.60724,1,1,1000,1000
501096,29:52.9,IMU,344124795,0,0.002939461,0.004453449,0.003218566,-4.696887,0.8036575,-8.644257,0,0,38.6081,1,1,999,999
501195,29:53.0,IMU,344164779,0,0.003125113,0.004436258,0.003233993,-4.700879,0.8042799,-8.641635,0,0,38.60895,1,1,999,999
501249,29:53.0,IMU,344204763,0,0.003172379,0.004288593,0.003323655,-4.702573,0.8055711,-8.638438,0,0,38.6098,1,1,999,999
501347,29:53.1,IMU,344244747,0,0.003233865,0.004201079,0.003320313,-4.705507,0.8051028,-8.635229,0,0,38.61065,1,1,999,999
501399,29:53.1,IMU,344284731,0,0.003293521,0.004150147,0.003254978,-4.707892,0.8056852,-8.632231,0,0,38.6115,1,1,999,999
501451,29:53.1,IMU,344324715,0,0.003286642,0.004880607,0.003278327,-4.712472,0.8074941,-8.638497,0,0,38.61235,1,1,999,999
501550,29:53.2,IMU,344364699,0,0.003335759,0.005788581,0.002812227,-4.715814,0.8068261,-8.64112,0,0,38.6132,1,1,999,999
501605,29:53.2,IMU,344404683,0,0.003400952,0.005898472,0.002471139,-4.717198,0.8072045,-8.634151,0,0,38.61406,1,1,999,999
501705,29:53.3,IMU,344444667,0,0.003426285,0.005710843,0.002076486,-4.720508,0.808407,-8.633132,0,0,38.61491,1,1,999,999
501759,29:53.3,IMU,344484651,0,0.004375468,0.005061273,0.001716626,-4.722691,0.8091551,-8.631753,0,0,38.61576,1,1,999,999
501812,29:53.3,IMU,344524635,0,0.007859597,0.00318006,0.001157927,-4.724366,0.8094018,-8.62977,0,0,38.61661,1,1,999,999
501915,29:53.4,IMU,344564619,0,0.009609044,0.004713258,0.000689512,-4.728026,0.8096329,-8.63723,0,0,38.61746,1,1,999,999
501971,29:53.4,IMU,344604603,0,0.009881673,0.004593272,0.000425037,-4.729765,0.8104614,-8.634924,0,0,38.61831,1,1,999,999
502069,29:53.5,IMU,344644587,0,0.01105304,0.004482138,0.000174394,-4.731965,0.8100201,-8.636657,0,0,38.61916,1,1,999,999
502120,29:53.5,IMU,344685404,0,0.01055128,0.004031762,8.036725e-05,-4.734785,0.810445,-8.632188,0,0,38.62004,1,1,999,999
502172,29:53.5,IMU,344725388,0,0.00926893,0.003415511,0.000112045,-4.737535,0.8103666,-8.632615,0,0,38.62089,1,1,999,999
502271,29:53.6,IMU,344765372,0,0.006705073,0.003495538,0.000305685,-4.738997,0.8100222,-8.634395,0,0,38.62174,1,1,999,999
502325,29:53.6,IMU,344805356,0,0.005093787,0.003080313,0.000705993,-4.741357,0.810299,-8.624486,0,0,38.62259,1,1,999,999
502423,29:53.7,IMU,344845340,0,0.007388607,0.002629287,0.000947204,-4.743047,0.8106469,-8.626068,0,0,38.62344,1,1,999,999
502474,29:53.7,IMU,344885324,0,0.006885973,0.00389476,0.001432567,-4.743306,0.8107316,-8.625902,0,0,38.62429,1,1,999,999
502526,29:53.7,IMU,344925308,0,0.006523702,0.004350583,0.001728972,-4.745758,0.8106194,-8.625629,0,0,38.62514,1,1,999,999
502625,29:53.8,IMU,344965292,0,0.006154846,0.004460251,0.001947818,-4.747694,0.811074,-8.625284,0,0,38.62599,1,1,999,999
502680,29:53.8,IMU,345005276,0,0.00586028,0.004353939,0.002118148,-4.74894,0.8116698,-8.62267,0,0,38.62684,1,1,999,999
502780,29:53.9,IMU,345045260,0,0.005564555,0.004298533,0.002205613,-4.750935,0.8115849,-8.620338,0,0,38.62769,1,1,999,999
502832,29:53.9,IMU,345085244,0,0.005319395,0.004234225,0.002329996,-4.75144,0.8100445,-8.6175,0,0,38.62854,1,1,999,999
502885,29:53.9,IMU,345125228,0,0.005156688,0.004133469,0.002424416,-4.752106,0.8114567,-8.616409,0,0,38.62937,1,1,999,999
502984,29:54.0,IMU,345165212,0,0.007702322,0.004086471,0.002335009,-4.754348,0.8101739,-8.615174,0,0,38.63022,1,1,999,999
503038,29:54.0,IMU,345205196,0,0.007184468,0.004068721,0.002447072,-4.755791,0.8098382,-8.612814,0,0,38.63107,1,1,999,999
503136,29:54.1,IMU,345245180,0,0.006809554,0.003999239,0.002567469,-4.756873,0.8113968,-8.611315,0,0,38.63191,1,1,999,999
503234,29:54.1,IMU,345285164,0,0.006431296,0.003951057,0.002625462,-4.757547,0.810881,-8.609674,0,0,38.63276,1,1,999,999
503286,29:54.1,IMU,345325148,0,0.006096766,0.003922604,0.002721241,-4.759572,0.8113869,-8.607564,0,0,38.63361,1,1,999,999
503385,29:54.2,IMU,345365132,0,0.005758363,0.003870556,0.002771548,-4.760323,0.8116702,-8.605587,0,0,38.63446,1,1,999,999
503440,29:54.2,IMU,345405116,0,0.005650053,0.003826825,0.002845417,-4.760532,0.8116741,-8.60313,0,0,38.63531,1,1,999,999
503540,29:54.3,IMU,345445100,0,0.006176635,0.001464376,0.002675224,-4.761726,0.812229,-8.605183,0,0,38.63616,1,1,999,999
503594,29:54.3,IMU,345485084,0,0.005906367,0.001397499,0.002795307,-4.763248,0.8110852,-8.600906,0,0,38.63701,1,1,999,999
503647,29:54.3,IMU,345525068,0,0.005582989,0.002578104,0.002617165,-4.764801,0.8110448,-8.60866,0,0,38.63786,1,1,999,999
503748,29:54.4,IMU,345565052,0,0.005352267,0.001939304,0.002270345,-4.765273,0.8104127,-8.604051,0,0,38.63873,1,1,999,999
503803,29:54.4,IMU,345605036,0,0.005907835,0.001435422,0.00192102,-4.766427,0.8112458,-8.602504,0,0,38.63957,1,1,999,999
503901,29:54.5,IMU,345645020,0,0.00732662,0.001280226,0.001626974,-4.767306,0.8106146,-8.606455,0,0,38.64042,1,1,999,999
503952,29:54.5,IMU,345685004,0,0.009879373,0.00069828,0.001260591,-4.767162,0.8096346,-8.599262,0,0,38.64127,1,1,999,999
504004,29:54.5,IMU,345724988,0,0.0104759,0.000830687,0.000932033,-4.768482,0.8092102,-8.601125,0,0,38.6421,1,1,999,999
504103,29:54.6,IMU,345764972,0,0.01033613,0.001001885,0.000636559,-4.770239,0.8105995,-8.600084,0,0,38.64294,1,1,999,999
504157,29:54.6,IMU,345804956,0,0.007744585,0.001462446,0.000778029,-4.770481,0.8110466,-8.60311,0,0,38.64379,1,1,999,999
504255,29:54.7,IMU,345844940,0,0.006714518,0.001658166,0.001012086,-4.77203,0.8104042,-8.598467,0,0,38.64464,1,1,999,999
504306,29:54.7,IMU,345884924,0,0.007724097,0.002308935,0.001130306,-4.771836,0.8095455,-8.597681,0,0,38.64548,1,1,999,999
504359,29:54.7,IMU,345924908,0,0.01005935,0.002404313,0.001232205,-4.772863,0.8094003,-8.596525,0,0,38.64633,1,1,999,999
504458,29:54.8,IMU,345964892,0,0.008113736,0.003089887,0.001612161,-4.773585,0.8086495,-8.597551,0,0,38.64718,1,1,999,999
504513,29:54.8,IMU,346004876,0,0.007511491,0.003071435,0.001857023,-4.77569,0.8085737,-8.596694,0,0,38.64803,1,1,999,999
504613,29:54.9,IMU,346044860,0,0.007176525,0.003121675,0.002115335,-4.774894,0.8087813,-8.594604,0,0,38.64887,1,1,999,999
504665,29:54.9,IMU,346084844,0,0.007422447,0.003186035,0.002396199,-4.777038,0.8081087,-8.593539,0,0,38.64972,1,1,999,999
504718,29:54.9,IMU,346124828,0,0.005005667,0.00477873,0.002705346,-4.77711,0.8078328,-8.589516,0,0,38.65057,1,1,1000,1000
504817,29:55.0,IMU,346164812,0,0.005067985,0.005982816,0.002840905,-4.777966,0.8057468,-8.589922,0,0,38.65141,1,1,1000,1000
504871,29:55.0,IMU,346204796,0,0.003867788,0.006240277,0.003127367,-4.778454,0.8050228,-8.589236,0,0,38.65226,1,1,1000,1000
504969,29:55.1,IMU,346244780,0,0.004154845,0.005430591,0.003189979,-4.778496,0.8046625,-8.589066,0,0,38.65311,1,1,1000,1000
505021,29:55.1,IMU,346284764,0,0.003214475,0.005452201,0.003209609,-4.780047,0.8057577,-8.586086,0,0,38.65395,1,1,1000,1000
505073,29:55.1,IMU,346324748,0,0.002099872,0.004757156,0.003322242,-4.7809,0.8042656,-8.587584,0,0,38.6548,1,1,1000,1000
505172,29:55.2,IMU,346364732,0,0.00143728,0.004449204,0.003223168,-4.780285,0.8047097,-8.584824,0,0,38.65564,1,1,1000,1000
505226,29:55.2,IMU,346404716,0,0.002658009,0.003995677,0.003134721,-4.781518,0.803587,-8.58359,0,0,38.65649,1,1,1000,1000
505327,29:55.3,IMU,346444700,0,0.004217494,0.00358148,0.002914558,-4.781119,0.803067,-8.58071,0,0,38.65734,1,1,1000,1000
505381,29:55.3,IMU,346484684,0,0.005321342,0.002592467,0.002698276,-4.783425,0.8021767,-8.579729,0,0,38.65818,1,1,1000,1000
505434,29:55.3,IMU,346524668,0,0.0068973,0.002349515,0.002497524,-4.782857,0.802054,-8.582591,0,0,38.65903,1,1,1000,1000
505535,29:55.4,IMU,346564652,0,0.006349086,0.004141592,0.002459605,-4.78442,0.8024003,-8.58357,0,0,38.65987,1,1,1000,1000
505590,29:55.4,IMU,346604636,0,0.004913097,0.003793356,0.002257569,-4.784769,0.8005624,-8.580269,0,0,38.66072,1,1,1000,1000
505689,29:55.5,IMU,346644620,0,0.001732397,0.003742513,0.002190971,-4.784492,0.8008274,-8.578888,0,0,38.66156,1,1,1000,1000
505740,29:55.5,IMU,346684604,0,0.001281351,0.0054611,0.002195292,-4.783825,0.8000965,-8.570544,0,0,38.66241,1,1,1000,1000
505792,29:55.5,IMU,346724588,0,0.00460494,0.005647972,0.002350623,-4.785101,0.7994948,-8.577783,0,0,38.66325,1,1,1000,1000
505891,29:55.6,IMU,346765405,0,0.004103565,0.005209287,0.00274464,-4.786301,0.7993794,-8.578993,0,0,38.66412,1,1,1000,1000
505945,29:55.6,IMU,346805389,0,0.00390326,0.004840526,0.003089018,-4.786005,0.7977546,-8.57114,0,0,38.66496,1,1,1000,1000
506043,29:55.7,IMU,346845373,0,0.004433681,0.004146956,0.003220472,-4.786084,0.7991323,-8.567907,0,0,38.66581,1,1,1000,1000
506094,29:55.7,IMU,346885357,0,0.00419679,0.00319094,0.003226964,-4.787525,0.7974,-8.568987,0,0,38.66665,1,1,1000,1000
506146,29:55.7,IMU,346925341,0,0.004872147,0.003009248,0.003019532,-4.788106,0.7980316,-8.575254,0,0,38.6675,1,1,1000,1000
506245,29:55.8,IMU,346965325,0,0.004775387,0.003099933,0.002686304,-4.787127,0.796598,-8.57018,0,0,38.66834,1,1,1000,1000
506299,29:55.8,IMU,347005309,0,0.003278029,0.002631458,0.002590403,-4.786194,0.7965893,-8.559339,0,0,38.66919,1,1,1000,1000
506400,29:55.9,IMU,347045293,0,0.002023042,0.002126464,0.002668247,-4.787241,0.7952848,-8.560494,0,0,38.67003,1,1,1000,1000
506452,29:55.9,IMU,347085277,0,0.002394851,0.00154293,0.002708479,-4.788779,0.7945139,-8.560595,0,0,38.67088,1,1,1000,1000
506504,29:55.9,IMU,347125261,0,0.002182454,0.002074955,0.002791994,-4.787177,0.7944474,-8.556747,0,0,38.67172,1,1,999,999
506604,29:56.0,IMU,347165245,0,0.002803226,0.002017554,0.002750916,-4.788227,0.7936301,-8.552831,0,0,38.67256,1,1,999,999
506658,29:56.0,IMU,347205229,0,0.002565526,0.001776153,0.002693422,-4.787964,0.7935266,-8.55006,0,0,38.67338,1,1,999,999
506756,29:56.1,IMU,347245213,0,0.003478731,0.003029864,0.002649768,-4.788088,0.7930105,-8.548185,0,0,38.67422,1,1,999,999
506809,29:56.1,IMU,347285197,0,0.003747291,0.00409002,0.002601164,-4.788033,0.7928495,-8.544647,0,0,38.67507,1,1,999,999
506861,29:56.1,IMU,347325181,0,0.003751026,0.004025211,0.002583748,-4.788949,0.792145,-8.541296,0,0,38.67591,1,1,999,999
506960,29:56.2,IMU,347365165,0,0.003702915,0.004064491,0.002643602,-4.788771,0.7912663,-8.54051,0,0,38.67676,1,1,999,999
507014,29:56.2,IMU,347405149,0,0.003712482,0.003971278,0.002776023,-4.788686,0.7901416,-8.539957,0,0,38.6776,1,1,999,999
507115,29:56.3,IMU,347445133,0,0.003622248,0.003936342,0.002816597,-4.789227,0.7885934,-8.53966,0,0,38.67844,1,1,999,999
507169,29:56.3,IMU,347485117,0,0.003621008,0.003895937,0.002940428,-4.789536,0.7884136,-8.540424,0,0,38.67929,1,1,999,999
507222,29:56.3,IMU,347525101,0,0.003714683,0.003865535,0.002939168,-4.789458,0.7914108,-8.539185,0,0,38.68013,1,1,999,999
507323,29:56.4,IMU,347565085,0,0.00368691,0.003813722,0.002895936,-4.790728,0.7880066,-8.538347,0,0,38.68097,1,1,999,999
507377,29:56.4,IMU,347605069,0,0.003711395,0.003816088,0.003050764,-4.791138,0.7880507,-8.539206,0,0,38.68181,1,1,999,999
507475,29:56.5,IMU,347645053,0,0.005138774,0.00383961,0.002960658,-4.791172,0.7890052,-8.535114,0,0,38.68268,1,1,999,999
507527,29:56.5,IMU,347685037,0,0.003632148,0.003132623,0.002809948,-4.789725,0.787957,-8.530247,0,0,38.68352,1,1,999,999
507579,29:56.5,IMU,347725021,0,0.003393503,0.003628675,0.002560202,-4.790183,0.7869252,-8.525138,0,0,38.68436,1,1,999,999
507678,29:56.6,IMU,347765005,0,0.002960133,0.003376759,0.002511674,-4.789626,0.7862024,-8.522122,0,0,38.6852,1,1,999,999
507732,29:56.6,IMU,347804989,0,0.003049046,0.003736575,0.002529712,-4.790107,0.7857804,-8.522373,0,0,38.68602,1,1,999,999
507830,29:56.7,IMU,347844973,0,0.003328418,0.003755634,0.0025668,-4.789183,0.7858371,-8.52331,0,0,38.68687,1,1,999,999
507881,29:56.7,IMU,347884957,0,0.00396325,0.004962913,0.002604003,-4.789391,0.7845124,-8.521386,0,0,38.68771,1,1,999,999
507934,29:56.7,IMU,347924941,0,0.004451937,0.004395444,0.002538651,-4.789616,0.7852613,-8.514526,0,0,38.68855,1,1,999,999
508033,29:56.8,IMU,347964925,0,0.004652265,0.005381214,0.002644704,-4.790901,0.7839059,-8.514723,0,0,38.68939,1,1,999,999
508087,29:56.8,IMU,348004909,0,0.003425558,0.005065727,0.002550304,-4.789872,0.7837149,-8.51406,0,0,38.69023,1,1,999,999
508188,29:56.9,IMU,348044893,0,0.003462142,0.004719749,0.002404372,-4.789334,0.7837868,-8.51368,0,0,38.69107,1,1,999,999
508242,29:56.9,IMU,348084877,0,0.003461674,0.00226799,0.002325079,-4.790456,0.7828224,-8.509264,0,0,38.69191,1,1,999,999
508294,29:56.9,IMU,348124861,0,0.003446464,0.002542307,0.002498545,-4.789668,0.7830591,-8.509148,0,0,38.69276,1,1,1000,1000
508394,29:57.0,IMU,348164845,0,0.003543117,0.002650037,0.002569141,-4.790275,0.7822627,-8.5093,0,0,38.6936,1,1,1000,1000
508448,29:57.0,IMU,348204829,0,0.003575023,0.00278885,0.002721962,-4.79056,0.7812858,-8.510401,0,0,38.69444,1,1,1000,1000
508546,29:57.1,IMU,348244813,0,0.003552163,0.002910865,0.002760107,-4.791691,0.781192,-8.511592,0,0,38.69528,1,1,1000,1000
508598,29:57.1,IMU,348284797,0,0.003575256,0.003011422,0.002772502,-4.790902,0.7803617,-8.511639,0,0,38.69612,1,1,1000,1000
508650,29:57.1,IMU,348324781,0,0.003519316,0.003040377,0.002849642,-4.791933,0.7808795,-8.512613,0,0,38.69696,1,1,1000,1000
508749,29:57.2,IMU,348364765,0,0.004070247,0.003140399,0.002954757,-4.792604,0.7798814,-8.510315,0,0,38.6978,1,1,1000,1000
508803,29:57.2,IMU,348404749,0,0.00433497,0.003150918,0.002914969,-4.792582,0.778848,-8.512031,0,0,38.69864,1,1,1000,1000
508904,29:57.3,IMU,348444733,0,0.006358293,0.003195013,0.002751003,-4.791868,0.77917,-8.509593,0,0,38.69948,1,1,1000,1000
508958,29:57.3,IMU,348484717,0,0.00732139,0.003268163,0.002424655,-4.791302,0.7788724,-8.506372,0,0,38.70032,1,1,1000,1000
509011,29:57.3,IMU,348524701,0,0.006790991,0.003307578,0.002134967,-4.791935,0.7779093,-8.50556,0,0,38.70116,1,1,1000,1000
509112,29:57.4,IMU,348564685,0,0.008891251,0.002821222,0.001775725,-4.791257,0.778134,-8.495975,0,0,38.702,1,1,1000,1000
509167,29:57.4,IMU,348604669,0,0.006633342,0.003360919,0.002021494,-4.79117,0.7788435,-8.49833,0,0,38.70284,1,1,1000,1000
509265,29:57.5,IMU,348644653,0,0.004842401,0.004068724,0.002229732,-4.792694,0.7773335,-8.49984,0,0,38.70368,1,1,1000,1000
509317,29:57.5,IMU,348684637,0,0.004834008,0.004584986,0.002468244,-4.790985,0.7766535,-8.501101,0,0,38.70452,1,1,1000,1000
509369,29:57.5,IMU,348724621,0,0.003259224,0.005685279,0.002701966,-4.79199,0.7773615,-8.499683,0,0,38.70536,1,1,1000,1000
509468,29:57.6,IMU,348764605,0,0.004304361,0.005522966,0.002731642,-4.79194,0.7760544,-8.492477,0,0,38.7062,1,1,1000,1000
509522,29:57.6,IMU,348804589,0,0.004085749,0.003017463,0.00264776,-4.79223,0.7750074,-8.489298,0,0,38.70704,1,1,1000,1000
509620,29:57.7,IMU,348845406,0,0.004137428,0.003223684,0.002752209,-4.792341,0.7749764,-8.492383,0,0,38.7079,1,1,1000,1000
509671,29:57.7,IMU,348885390,0,0.004278318,0.002946953,0.002866026,-4.794193,0.7757149,-8.505465,0,0,38.70873,1,1,1000,1000
509723,29:57.7,IMU,348925374,0,0.003597409,0.002240078,0.002920564,-4.794336,0.7736315,-8.497492,0,0,38.70957,1,1,1000,1000
509822,29:57.8,IMU,348965358,0,0.005619187,0.002491561,0.002922066,-4.792868,0.7737467,-8.493355,0,0,38.71041,1,1,1000,1000
509876,29:57.8,IMU,349005342,0,0.005358438,0.00259688,0.003012975,-4.794014,0.7740228,-8.493222,0,0,38.71125,1,1,1000,1000
509977,29:57.9,IMU,349045326,0,0.004215708,0.00268524,0.00308155,-4.794726,0.773538,-8.494781,0,0,38.71209,1,1,1000,1000
510029,29:57.9,IMU,349085310,0,0.004169298,0.002895396,0.003125034,-4.793286,0.7737808,-8.495729,0,0,38.71293,1,1,1000,1000
510081,29:57.9,IMU,349125294,0,0.004033038,0.002934334,0.003250426,-4.793986,0.7728874,-8.497635,0,0,38.71376,1,1,999,999
510180,29:58.0,IMU,349165278,0,0.004005841,0.003027142,0.003256913,-4.795029,0.7726637,-8.49721,0,0,38.7146,1,1,999,999
510235,29:58.0,IMU,349205262,0,0.004005337,0.00308677,0.00324795,-4.794137,0.7726686,-8.497972,0,0,38.71544,1,1,999,999
510334,29:58.1,IMU,349245246,0,0.0039159,0.003087318,0.003290226,-4.795095,0.7709559,-8.499221,0,0,38.71628,1,1,999,999
510386,29:58.1,IMU,349285230,0,0.003901837,0.003168827,0.003313689,-4.794619,0.7709235,-8.499723,0,0,38.71709,1,1,999,999
510438,29:58.1,IMU,349325214,0,0.003840605,0.003240247,0.003334495,-4.795189,0.7707223,-8.50087,0,0,38.71793,1,1,999,999
510537,29:58.2,IMU,349365198,0,0.003848435,0.003282727,0.003391632,-4.795852,0.7705669,-8.50135,0,0,38.71877,1,1,999,999
510591,29:58.2,IMU,349405182,0,0.002750214,0.003323356,0.003359362,-4.794787,0.7695221,-8.496592,0,0,38.71961,1,1,999,999
510692,29:58.3,IMU,349445166,0,0.004064191,0.003351737,0.002947073,-4.794839,0.7697008,-8.493561,0,0,38.72045,1,1,999,999
510746,29:58.3,IMU,349485150,0,0.005460226,0.003403347,0.002603158,-4.795533,0.7686853,-8.495678,0,0,38.72128,1,1,999,999
510798,29:58.3,IMU,349525134,0,0.005064261,0.004435921,0.002364182,-4.795507,0.768975,-8.493504,0,0,38.72212,1,1,999,999
510902,29:58.4,IMU,349565118,0,0.00378634,0.005880579,0.002491577,-4.796015,0.7684889,-8.48875,0,0,38.72296,1,1,999,999
510956,29:58.4,IMU,349605102,0,0.00234145,0.006290022,0.002611417,-4.795156,0.7677096,-8.489021,0,0,38.72379,1,1,999,999
511054,29:58.5,IMU,349645086,0,0.002933672,0.005568439,0.002629031,-4.797535,0.7678217,-8.491928,0,0,38.72463,1,1,999,999
511105,29:58.5,IMU,349685070,0,0.002255672,0.003875199,0.002685914,-4.796489,0.7675713,-8.49201,0,0,38.72547,1,1,999,999
511158,29:58.5,IMU,349725054,0,0.001923295,0.003312183,0.002855319,-4.797003,0.7660927,-8.490557,0,0,38.72633,1,1,999,999
511257,29:58.6,IMU,349765038,0,0.002105716,0.002742311,0.00292149,-4.797618,0.7658707,-8.493219,0,0,38.72716,1,1,999,999
511311,29:58.6,IMU,349805022,0,0.001607192,0.002157241,0.003049767,-4.79802,0.7666302,-8.492391,0,0,38.728,1,1,999,999
511409,29:58.7,IMU,349845006,0,0.00156711,0.00206786,0.003133165,-4.79884,0.7659575,-8.491123,0,0,38.72884,1,1,999,999
511460,29:58.7,IMU,349884990,0,0.003061949,0.003286303,0.003058477,-4.7973,0.7647032,-8.489302,0,0,38.72965,1,1,999,999
511513,29:58.7,IMU,349924974,0,0.001513711,0.00404422,0.003035266,-4.798853,0.7645499,-8.489003,0,0,38.73048,1,1,999,999
511612,29:58.8,IMU,349964958,0,0.001461927,0.004176843,0.002971336,-4.798557,0.7629585,-8.495754,0,0,38.73132,1,1,999,999
511666,29:58.8,IMU,350004942,0,0.004604307,0.004812635,0.002739364,-4.798932,0.7637203,-8.489096,0,0,38.73216,1,1,999,999
511767,29:58.9,IMU,350044926,0,0.004430194,0.005120662,0.002612935,-4.798378,0.7634975,-8.492548,0,0,38.73299,1,1,999,999
511819,29:58.9,IMU,350084910,0,0.004325201,0.004273925,0.002462348,-4.798734,0.7617768,-8.488945,0,0,38.73383,1,1,999,999
511871,29:58.9,IMU,350124894,0,0.004163748,0.002766003,0.002448938,-4.797405,0.7624598,-8.488418,0,0,38.73466,1,1,999,999
511970,29:59.0,IMU,350164878,0,0.004142545,0.00293359,0.002537678,-4.798255,0.7622674,-8.488648,0,0,38.7355,1,1,999,999
512024,29:59.0,IMU,350204862,0,0.003352151,0.002972141,0.00269105,-4.799025,0.7621248,-8.492997,0,0,38.73634,1,1,999,999
512123,29:59.1,IMU,350244846,0,0.003182703,0.003029535,0.002889164,-4.799477,0.7616223,-8.493717,0,0,38.73717,1,1,999,999
512175,29:59.1,IMU,350284830,0,0.003341936,0.003171983,0.002977402,-4.798455,0.7608865,-8.492616,0,0,38.73801,1,1,999,999
512227,29:59.1,IMU,350324814,0,0.00334039,0.003215746,0.003075202,-4.79916,0.7604233,-8.493043,0,0,38.73884,1,1,999,999
512326,29:59.2,IMU,350364798,0,0.003292857,0.003223356,0.003081145,-4.799475,0.7596915,-8.493072,0,0,38.73967,1,1,999,999
512380,29:59.2,IMU,350404782,0,0.003384028,0.004313417,0.003053417,-4.799428,0.7608721,-8.497983,0,0,38.74051,1,1,999,999
512481,29:59.3,IMU,350444766,0,0.003373816,0.005074943,0.00289503,-4.799507,0.7598657,-8.501318,0,0,38.74134,1,1,999,999
512535,29:59.3,IMU,350484750,0,0.003412393,0.003108063,0.002799229,-4.800305,0.7600077,-8.497376,0,0,38.74218,1,1,999,999
512587,29:59.3,IMU,350524734,0,0.003417604,0.003383168,0.002827531,-4.799856,0.7595012,-8.497396,0,0,38.74301,1,1,999,999
512689,29:59.4,IMU,350564718,0,0.003433989,0.003374378,0.00288793,-4.800165,0.7596602,-8.49909,0,0,38.74385,1,1,999,999
512744,29:59.4,IMU,350604702,0,0.00347713,0.003401269,0.002951438,-4.800085,0.7588371,-8.499474,0,0,38.74468,1,1,999,999
512842,29:59.5,IMU,350644686,0,0.003480518,0.003429393,0.003012915,-4.800063,0.7591698,-8.500985,0,0,38.74551,1,1,999,999
512893,29:59.5,IMU,350684670,0,0.003485083,0.003502299,0.003077871,-4.801954,0.7575959,-8.500515,0,0,38.74635,1,1,999,999
512946,29:59.5,IMU,350724654,0,0.003798418,0.003484996,0.003071884,-4.800333,0.7575775,-8.498615,0,0,38.74718,1,1,999,999
513045,29:59.6,IMU,350764638,0,0.00538516,0.003458168,0.002949826,-4.80077,0.7577436,-8.502734,0,0,38.74802,1,1,999,999
513099,29:59.6,IMU,350804622,0,0.006850393,0.003522537,0.00285761,-4.800138,0.7576891,-8.497808,0,0,38.74885,1,1,999,999
513197,29:59.7,IMU,350844606,0,0.007175002,0.003522065,0.002689377,-4.800821,0.7577628,-8.503404,0,0,38.74968,1,1,999,999
513248,29:59.7,IMU,350884590,0,0.005413159,0.003516579,0.002596015,-4.800538,0.7572861,-8.4975,0,0,38.75051,1,1,999,999
513300,29:59.7,IMU,350925407,0,0.005606183,0.003494467,0.002299193,-4.800299,0.7570109,-8.498322,0,0,38.75137,1,1,999,999
513399,29:59.8,IMU,350965391,0,0.004828734,0.003573206,0.002136233,-4.801352,0.7567486,-8.500948,0,0,38.7522,1,1,999,999
513453,29:59.8,IMU,351005375,0,0.005752911,0.003498158,0.001943192,-4.800474,0.7571149,-8.501582,0,0,38.75304,1,1,999,999
513554,29:59.9,IMU,351045359,0,0.005483525,0.003588314,0.001772793,-4.801103,0.7568541,-8.502009,0,0,38.75387,1,1,999,999
513606,29:59.9,IMU,351085343,0,0.007514905,0.002683796,0.00152077,-4.802258,0.7553829,-8.502846,0,0,38.7547,1,1,999,999
513658,29:59.9,IMU,351125327,0,0.005833887,0.001197318,0.00148324,-4.801238,0.7553148,-8.497735,0,0,38.75554,1,1,1000,1000
513757,30:00.0,IMU,351165311,0,0.005039287,0.001960074,0.001757612,-4.801881,0.7544521,-8.498503,0,0,38.75637,1,1,1000,1000
513811,30:00.0,IMU,351205295,0,0.004420611,0.002758309,0.002001594,-4.801825,0.7540456,-8.503737,0,0,38.7572,1,1,1000,1000
513911,30:00.1,IMU,351245279,0,0.006270743,0.002810326,0.002176571,-4.801318,0.7538896,-8.499372,0,0,38.75803,1,1,1000,1000
513963,30:00.1,IMU,351285263,0,0.007475291,0.004329746,0.002425697,-4.802526,0.7539996,-8.503911,0,0,38.75887,1,1,1000,1000
514015,30:00.1,IMU,351325247,0,0.00719517,0.003921889,0.002508315,-4.802767,0.7522483,-8.503796,0,0,38.7597,1,1,1000,1000
514114,30:00.2,IMU,351365231,0,0.006445278,0.005021079,0.002654895,-4.801085,0.7535163,-8.504253,0,0,38.76051,1,1,1000,1000
514168,30:00.2,IMU,351405215,0,0.005511905,0.004641452,0.002905459,-4.803363,0.7540573,-8.506965,0,0,38.76134,1,1,1000,1000
514269,30:00.3,IMU,351445199,0,0.006898375,0.003440802,0.002800597,-4.801831,0.7522993,-8.504303,0,0,38.76217,1,1,1000,1000
514323,30:00.3,IMU,351485183,0,0.006305297,0.002597447,0.002849926,-4.802965,0.7517939,-8.505915,0,0,38.763,1,1,1000,1000
514375,30:00.3,IMU,351525167,0,0.004991362,0.002533951,0.002922804,-4.802192,0.7505897,-8.5038,0,0,38.76383,1,1,1000,1000
514477,30:00.4,IMU,351565151,0,0.003447703,0.002094328,0.002879601,-4.802307,0.7520007,-8.506084,0,0,38.76466,1,1,1000,1000
514531,30:00.4,IMU,351605135,0,0.003675718,0.001919905,0.002865272,-4.804565,0.7517466,-8.507131,0,0,38.7655,1,1,1000,1000
514629,30:00.5,IMU,351645119,0,0.003324427,0.002926034,0.002811957,-4.804192,0.7499929,-8.511331,0,0,38.76633,1,1,1000,1000
514680,30:00.5,IMU,351685103,0,0.003127773,0.002956886,0.002586035,-4.803761,0.7497053,-8.511847,0,0,38.76716,1,1,1000,1000
514732,30:00.5,IMU,351725087,0,0.003247729,0.002769287,0.002381833,-4.803229,0.7482024,-8.50481,0,0,38.76799,1,1,1000,1000
514832,30:00.6,IMU,351765071,0,0.002711615,0.002471612,0.002586401,-4.804111,0.7489088,-8.508902,0,0,38.76882,1,1,1000,1000
514886,30:00.6,IMU,351805055,0,0.002380737,0.00314921,0.002720742,-4.804058,0.7478254,-8.50806,0,0,38.76967,1,1,1000,1000
514984,30:00.7,IMU,351845039,0,0.002604031,0.003886426,0.002797889,-4.803776,0.7479944,-8.512203,0,0,38.7705,1,1,1000,1000
515035,30:00.7,IMU,351885023,0,0.003250768,0.003621689,0.002875003,-4.803948,0.7477368,-8.512339,0,0,38.77133,1,1,1000,1000
515088,30:00.7,IMU,351925007,0,0.004198006,0.004358061,0.002972673,-4.803822,0.7461886,-8.509676,0,0,38.77216,1,1,1000,1000
515187,30:00.8,IMU,351964991,0,0.005008418,0.005008869,0.003046221,-4.804946,0.7466555,-8.515495,0,0,38.77297,1,1,1000,1000
515241,30:00.8,IMU,352004975,0,0.005463208,0.004361776,0.003118558,-4.805069,0.7455273,-8.515205,0,0,38.7738,1,1,1000,1000
515341,30:00.9,IMU,352044959,0,0.002750908,0.003663796,0.003420644,-4.80576,0.745882,-8.518993,0,0,38.77464,1,1,1000,1000
515396,30:00.9,IMU,352084943,0,0.002679936,0.004089424,0.003568831,-4.803955,0.74589,-8.515083,0,0,38.77546,1,1,1000,1000
515448,30:00.9,IMU,352124927,0,0.002390688,0.003653603,0.00356653,-4.805364,0.7435084,-8.516796,0,0,38.77629,1,1,999,999
515547,30:01.0,IMU,352164911,0,0.002008188,0.003384541,0.003487757,-4.804531,0.7444212,-8.513959,0,0,38.77712,1,1,999,999
515601,30:01.0,IMU,352204895,0,0.002525929,0.004339091,0.003289694,-4.804968,0.7440717,-8.518345,0,0,38.77795,1,1,999,999
515699,30:01.1,IMU,352244879,0,0.00202135,0.004144675,0.003009142,-4.805569,0.7441425,-8.520875,0,0,38.77878,1,1,999,999
515752,30:01.1,IMU,352284863,0,0.001432982,0.004048659,0.002846093,-4.8058,0.7433817,-8.52297,0,0,38.77961,1,1,999,999
515804,30:01.1,IMU,352324847,0,0.00065508,0.005087232,0.00285073,-4.805765,0.7432534,-8.51251,0,0,38.78044,1,1,999,999
515903,30:01.2,IMU,352364831,0,0.00129574,0.004896122,0.002893828,-4.806701,0.7418958,-8.517023,0,0,38.78127,1,1,999,999
515957,30:01.2,IMU,352404815,0,0.003619666,0.004287347,0.002732363,-4.805645,0.7413005,-8.519796,0,0,38.7821,1,1,999,999
516058,30:01.3,IMU,352444799,0,0.004761129,0.003944512,0.002862787,-4.806867,0.7423961,-8.52045,0,0,38.78293,1,1,999,999
516113,30:01.3,IMU,352484783,0,0.003360042,0.003280114,0.003143668,-4.806862,0.7408624,-8.519114,0,0,38.78376,1,1,999,999
516165,30:01.3,IMU,352524767,0,0.003604237,0.002814702,0.003335207,-4.805676,0.7417454,-8.518908,0,0,38.78459,1,1,999,999
516267,30:01.4,IMU,352564751,0,0.003910491,0.003428821,0.003508619,-4.805711,0.7398435,-8.518327,0,0,38.78542,1,1,999,999
516322,30:01.4,IMU,352604735,0,0.004008634,0.003607414,0.003471586,-4.806073,0.7408135,-8.516662,0,0,38.78624,1,1,999,999
516420,30:01.5,IMU,352644719,0,0.002557638,0.001680382,0.003449201,-4.807285,0.7401519,-8.521472,0,0,38.78707,1,1,999,999
516471,30:01.5,IMU,352684703,0,0.002686252,0.004365246,0.003256571,-4.806798,0.7402148,-8.523929,0,0,38.7879,1,1,999,999
516523,30:01.5,IMU,352724687,0,0.00101914,0.003638186,0.003051751,-4.805747,0.7393888,-8.519602,0,0,38.78873,1,1,999,999
516622,30:01.6,IMU,352764671,0,0.001780667,0.003238943,0.002719384,-4.807967,0.7394446,-8.522765,0,0,38.78956,1,1,999,999
516677,30:01.6,IMU,352804655,0,0.001653768,0.003159837,0.002670874,-4.807629,0.7379988,-8.516907,0,0,38.79039,1,1,999,999
516775,30:01.7,IMU,352844639,0,0.002569312,0.004664329,0.00264895,-4.806043,0.7397129,-8.517445,0,0,38.79121,1,1,999,999
516826,30:01.7,IMU,352884623,0,0.003792286,0.004729041,0.002755294,-4.80634,0.7381679,-8.519531,0,0,38.79204,1,1,999,999
516878,30:01.7,IMU,352924607,0,0.004529112,0.004181993,0.002817756,-4.807353,0.737989,-8.525925,0,0,38.79287,1,1,999,999
516977,30:01.8,IMU,352964591,0,0.005367518,0.003331858,0.002675227,-4.807678,0.7362117,-8.526677,0,0,38.7937,1,1,999,999
517031,30:01.8,IMU,353005408,0,0.005985164,0.002214179,0.002432031,-4.806443,0.7376139,-8.522107,0,0,38.79454,1,1,999,999
517131,30:01.9,IMU,353045392,0,0.00547105,0.001808107,0.002514044,-4.806346,0.7366035,-8.519153,0,0,38.79537,1,1,999,999
517184,30:01.9,IMU,353085376,0,0.005610069,0.002030762,0.00255413,-4.807248,0.7366571,-8.525255,0,0,38.7962,1,1,999,999
517236,30:01.9,IMU,353125360,0,0.004649838,0.003568166,0.002583969,-4.80875,0.7367606,-8.529503,0,0,38.79703,1,1,1000,1000
517335,30:02.0,IMU,353165344,0,0.004013361,0.002843857,0.002640878,-4.808024,0.7356123,-8.528526,0,0,38.79785,1,1,1000,1000
517389,30:02.0,IMU,353205328,0,0.003798004,0.002362019,0.002561074,-4.807791,0.7353356,-8.524774,0,0,38.79868,1,1,1000,1000
517488,30:02.1,IMU,353245312,0,0.002456231,0.00145459,0.002648856,-4.806246,0.7344808,-8.520946,0,0,38.79951,1,1,1000,1000
517540,30:02.1,IMU,353285296,0,0.006147104,0.00465269,0.002567994,-4.807868,0.7355376,-8.531236,0,0,38.80033,1,1,1000,1000
517593,30:02.1,IMU,353325280,0,0.005688425,0.003855641,0.002676828,-4.80861,0.7347158,-8.532129,0,0,38.80116,1,1,1000,1000
517692,30:02.2,IMU,353365264,0,0.003425686,0.00305394,0.002825658,-4.808689,0.735126,-8.528765,0,0,38.80199,1,1,1000,1000
517746,30:02.2,IMU,353405248,0,0.002832963,0.00213061,0.002880509,-4.807331,0.7340125,-8.524408,0,0,38.80281,1,1,1000,1000
517847,30:02.3,IMU,353445232,0,0.002821725,0.002252461,0.003043775,-4.809069,0.7334384,-8.530369,0,0,38.80362,1,1,1000,1000
517901,30:02.3,IMU,353485216,0,0.002931895,0.002270754,0.003054005,-4.809069,0.7326406,-8.531699,0,0,38.80444,1,1,1000,1000
517953,30:02.3,IMU,353525200,0,0.002902539,0.002455511,0.003123914,-4.809064,0.73305,-8.531189,0,0,38.80527,1,1,1000,1000
518054,30:02.4,IMU,353565184,0,0.003381783,0.002506207,0.003148692,-4.807909,0.7329937,-8.530787,0,0,38.8061,1,1,1000,1000
518109,30:02.4,IMU,353605168,0,0.003933475,0.002662838,0.003123908,-4.80836,0.7313598,-8.530736,0,0,38.80692,1,1,1000,1000
518207,30:02.5,IMU,353645152,0,0.003907356,0.002733219,0.003134509,-4.809006,0.7312735,-8.530457,0,0,38.80775,1,1,1000,1000
518258,30:02.5,IMU,353685136,0,0.003843022,0.002826945,0.003134123,-4.80822,0.7321226,-8.529872,0,0,38.80857,1,1,1000,1000
518310,30:02.5,IMU,353725120,0,0.003844077,0.002939791,0.003243386,-4.809887,0.7304783,-8.530437,0,0,38.8094,1,1,1000,1000
518409,30:02.6,IMU,353765104,0,0.003806739,0.003039456,0.003245114,-4.809224,0.7312969,-8.530726,0,0,38.81022,1,1,1000,1000
518464,30:02.6,IMU,353805088,0,0.003683713,0.003081783,0.003294619,-4.808887,0.7308366,-8.530559,0,0,38.81105,1,1,1000,1000
518562,30:02.7,IMU,353845072,0,0.003716307,0.003147362,0.003247518,-4.809543,0.730399,-8.529399,0,0,38.81187,1,1,1000,1000
518613,30:02.7,IMU,353885056,0,0.003702682,0.003167062,0.003312425,-4.808029,0.7293359,-8.529489,0,0,38.81272,1,1,1000,1000
518666,30:02.7,IMU,353925040,0,0.003699674,0.003183317,0.003344994,-4.808597,0.7292687,-8.528921,0,0,38.81355,1,1,1000,1000
518765,30:02.8,IMU,353965024,0,0.003653041,0.003246716,0.003346885,-4.808597,0.7295732,-8.528869,0,0,38.81437,1,1,1000,1000
518819,30:02.8,IMU,354005008,0,0.004546203,0.003355855,0.002965464,-4.811742,0.7288765,-8.545969,0,0,38.81519,1,1,1000,1000
518919,30:02.9,IMU,354044992,0,0.006241408,0.003497006,0.002182999,-4.811687,0.7295789,-8.542536,0,0,38.816,1,1,1000,1000
518972,30:02.9,IMU,354084976,0,0.00439383,0.00511155,0.002151558,-4.811768,0.7290826,-8.54187,0,0,38.81682,1,1,1000,1000
519024,30:02.9,IMU,354124960,0,0.004167626,0.00469135,0.002149274,-4.812046,0.7296121,-8.546212,0,0,38.81765,1,1,1000,1000
519123,30:03.0,IMU,354164944,0,0.004278336,0.005095433,0.002288959,-4.811472,0.7292458,-8.552776,0,0,38.81847,1,1,999,999
519177,30:03.0,IMU,354204928,0,0.004715979,0.004628474,0.002426498,-4.812674,0.7294089,-8.555668,0,0,38.8193,1,1,999,999
519275,30:03.1,IMU,354244912,0,0.004990553,0.004207019,0.002444046,-4.813589,0.7279997,-8.559202,0,0,38.82012,1,1,999,999
519326,30:03.1,IMU,354284896,0,0.00483415,0.004169899,0.002474261,-4.814376,0.7289199,-8.558333,0,0,38.82095,1,1,999,999
519380,30:03.1,IMU,354324880,0,0.004648129,0.004053712,0.002602937,-4.814447,0.7259922,-8.558121,0,0,38.82177,1,1,999,999
519479,30:03.2,IMU,354364864,0,0.00449579,0.003949583,0.002694565,-4.814204,0.7270166,-8.557468,0,0,38.82259,1,1,999,999
519533,30:03.2,IMU,354404848,0,0.004413518,0.003965256,0.002713683,-4.813907,0.7275474,-8.555243,0,0,38.82341,1,1,999,999
519634,30:03.3,IMU,354444832,0,0.004331347,0.003890019,0.002829207,-4.813688,0.7261331,-8.557404,0,0,38.82424,1,1,999,999
519688,30:03.3,IMU,354484816,0,0.004328014,0.003573346,0.002853439,-4.815622,0.7268286,-8.558432,0,0,38.82506,1,1,999,999
519740,30:03.3,IMU,354524800,0,0.005432415,0.004014052,0.002723242,-4.816693,0.7261494,-8.570278,0,0,38.82589,1,1,999,999
519842,30:03.4,IMU,354564784,0,0.005000496,0.003289656,0.002796727,-4.816432,0.7256775,-8.570234,0,0,38.82671,1,1,999,999
519897,30:03.4,IMU,354604768,0,0.004082522,0.004093657,0.002926487,-4.815742,0.7247533,-8.57036,0,0,38.82753,1,1,999,999
519997,30:03.5,IMU,354644752,0,0.004212886,0.004555508,0.003079664,-4.816309,0.7250758,-8.577792,0,0,38.82835,1,1,999,999
520048,30:03.5,IMU,354684736,0,0.005179758,0.00428253,0.00321316,-4.816607,0.7250113,-8.578759,0,0,38.82918,1,1,999,999
520100,30:03.5,IMU,354724720,0,0.005000221,0.002496766,0.003340091,-4.817164,0.725482,-8.578089,0,0,38.83,1,1,999,999
520199,30:03.6,IMU,354764704,0,0.004853102,0.003472971,0.003310705,-4.81666,0.7240465,-8.580421,0,0,38.83082,1,1,999,999
520253,30:03.6,IMU,354804688,0,0.004626281,0.003443248,0.003372496,-4.817043,0.7238034,-8.578256,0,0,38.83165,1,1,999,999
520352,30:03.7,IMU,354844672,0,0.004577233,0.003510428,0.003331333,-4.816651,0.7238645,-8.576659,0,0,38.83247,1,1,999,999
520403,30:03.7,IMU,354884656,0,0.004381394,0.003469149,0.003434802,-4.817477,0.7234821,-8.574524,0,0,38.83329,1,1,999,999
520455,30:03.7,IMU,354924640,0,0.004299243,0.003498226,0.003374259,-4.816622,0.722735,-8.573351,0,0,38.83411,1,1,999,999
520554,30:03.8,IMU,354964624,0,0.003929737,0.003647497,0.003363979,-4.817991,0.7219164,-8.582589,0,0,38.83493,1,1,999,999
520608,30:03.8,IMU,355004608,0,0.005161508,0.003483501,0.002909045,-4.819484,0.7236168,-8.595276,0,0,38.83575,1,1,999,999
520708,30:03.9,IMU,355044592,0,0.005178435,0.002349875,0.002661715,-4.817925,0.7227889,-8.58214,0,0,38.83658,1,1,999,999
520760,30:03.9,IMU,355085409,0,0.004705918,0.001481454,0.002732825,-4.818066,0.7210284,-8.585606,0,0,38.83742,1,1,999,999
520813,30:03.9,IMU,355125393,0,0.004341991,0.001375475,0.002791508,-4.818485,0.7223113,-8.588322,0,0,38.83824,1,1,999,999
520912,30:04.0,IMU,355165377,0,0.002439343,0.003762597,0.002978635,-4.817996,0.7212873,-8.592607,0,0,38.83906,1,1,999,999
520966,30:04.0,IMU,355205361,0,0.004031777,0.002900615,0.00289879,-4.8203,0.7207054,-8.595368,0,0,38.83989,1,1,999,999
521065,30:04.1,IMU,355245345,0,0.00396665,0.002974944,0.002951822,-4.819805,0.7210442,-8.59359,0,0,38.84071,1,1,999,999
521116,30:04.1,IMU,355285329,0,0.003864482,0.003069088,0.002982072,-4.819047,0.7204659,-8.592642,0,0,38.84153,1,1,999,999
521170,30:04.1,IMU,355325313,0,0.00382877,0.003088338,0.003104775,-4.819479,0.7200565,-8.590698,0,0,38.84235,1,1,999,999
521269,30:04.2,IMU,355365297,0,0.003808638,0.003138784,0.003073819,-4.819409,0.7192232,-8.589626,0,0,38.84317,1,1,999,999
521323,30:04.2,IMU,355405281,0,0.003735628,0.003147621,0.003106041,-4.818722,0.7196441,-8.587852,0,0,38.84399,1,1,999,999
521424,30:04.3,IMU,355445265,0,0.003645557,0.003706226,0.003148437,-4.819046,0.7182271,-8.589666,0,0,38.84481,1,1,999,999
521478,30:04.3,IMU,355485249,0,0.003468019,0.004580728,0.003061468,-4.821823,0.7194784,-8.600963,0,0,38.84563,1,1,999,999
521530,30:04.3,IMU,355525233,0,0.002254942,0.005085778,0.003116593,-4.819862,0.7179747,-8.597338,0,0,38.84643,1,1,999,999
521631,30:04.4,IMU,355565217,0,0.003179583,0.005043353,0.00305633,-4.821239,0.7177707,-8.597092,0,0,38.84725,1,1,999,999
521686,30:04.4,IMU,355605201,0,0.003729436,0.005562265,0.002961028,-4.820141,0.719485,-8.596296,0,0,38.84807,1,1,999,999
521784,30:04.5,IMU,355645185,0,0.004352251,0.005224875,0.002937333,-4.822033,0.717429,-8.598388,0,0,38.84889,1,1,999,999
521835,30:04.5,IMU,355685169,0,0.005196569,0.003678169,0.002781662,-4.821896,0.7173097,-8.600669,0,0,38.84971,1,1,999,999
521887,30:04.5,IMU,355725153,0,0.005049269,0.004010181,0.002669899,-4.822331,0.7162542,-8.604088,0,0,38.85053,1,1,999,999
521986,30:04.6,IMU,355765137,0,0.005105374,0.003963655,0.002785746,-4.823123,0.717087,-8.602921,0,0,38.85135,1,1,999,999
522040,30:04.6,IMU,355805121,0,0.00487751,0.003905147,0.002825809,-4.821908,0.7165842,-8.601388,0,0,38.85217,1,1,999,999
522139,30:04.7,IMU,355845105,0,0.004696866,0.003873878,0.002878199,-4.823995,0.716372,-8.599645,0,0,38.85299,1,1,999,999
522190,30:04.7,IMU,355885089,0,0.003698972,0.003806273,0.002910729,-4.822168,0.7156956,-8.59656,0,0,38.85381,1,1,999,999
522243,30:04.7,IMU,355925073,0,0.003666184,0.003793201,0.002966771,-4.823289,0.7151198,-8.596135,0,0,38.85463,1,1,999,999
522342,30:04.8,IMU,355965057,0,0.003670013,0.003732837,0.003014444,-4.821479,0.7157001,-8.593756,0,0,38.85547,1,1,999,999
522396,30:04.8,IMU,356005041,0,0.003578544,0.003763307,0.003001887,-4.821872,0.7155757,-8.591738,0,0,38.85629,1,1,999,999
522496,30:04.9,IMU,356045025,0,0.003554353,0.003677765,0.003115593,-4.821733,0.7132489,-8.591321,0,0,38.85711,1,1,999,999
522549,30:04.9,IMU,356085009,0,0.004457548,0.004821206,0.003151099,-4.823132,0.7148876,-8.607067,0,0,38.85793,1,1,999,999
522603,30:04.9,IMU,356124993,0,0.004021326,0.004894697,0.003264508,-4.824671,0.7151827,-8.604036,0,0,38.85873,1,1,999,999
522702,30:05.0,IMU,356164977,0,0.004484345,0.004718432,0.003211562,-4.823015,0.7130964,-8.604112,0,0,38.85954,1,1,1000,1000
522756,30:05.0,IMU,356204961,0,0.004516537,0.004430464,0.003317844,-4.822328,0.7137623,-8.602398,0,0,38.86036,1,1,1000,1000
522854,30:05.1,IMU,356244945,0,0.003545699,0.002666943,0.003229521,-4.824239,0.7120336,-8.60498,0,0,38.86118,1,1,1000,1000
522905,30:05.1,IMU,356284929,0,0.002197619,0.003964294,0.003397292,-4.82492,0.7138587,-8.609025,0,0,38.862,1,1,1000,1000
522958,30:05.1,IMU,356324913,0,0.002437586,0.003838497,0.003391745,-4.823469,0.7125005,-8.608554,0,0,38.86282,1,1,1000,1000
523058,30:05.2,IMU,356364897,0,0.002529913,0.003759658,0.003372472,-4.824048,0.7129347,-8.605419,0,0,38.86364,1,1,1000,1000
523112,30:05.2,IMU,356404881,0,0.002691108,0.003762901,0.003353352,-4.822929,0.7132431,-8.603891,0,0,38.86446,1,1,1000,1000
523213,30:05.3,IMU,356444865,0,0.002754895,0.003716627,0.003400376,-4.823937,0.712181,-8.600667,0,0,38.86527,1,1,1000,1000
523267,30:05.3,IMU,356484849,0,0.002890805,0.003730707,0.003350981,-4.823889,0.7120708,-8.599074,0,0,38.86609,1,1,1000,1000
523319,30:05.3,IMU,356524833,0,0.002938128,0.003650175,0.00342257,-4.823318,0.7109632,-8.596452,0,0,38.86691,1,1,1000,1000
523421,30:05.4,IMU,356564817,0,0.002330033,0.002666471,0.003340491,-4.826414,0.7119411,-8.614751,0,0,38.86773,1,1,1000,1000
523475,30:05.4,IMU,356604801,0,0.003112163,0.002404234,0.003208101,-4.825152,0.712553,-8.610357,0,0,38.86855,1,1,1000,1000
523574,30:05.5,IMU,356644785,0,0.002983769,0.002440086,0.003210115,-4.824915,0.7100425,-8.608897,0,0,38.86936,1,1,1000,1000
523625,30:05.5,IMU,356684769,0,0.00287462,0.001902121,0.003054363,-4.825578,0.7105052,-8.613184,0,0,38.87018,1,1,1000,1000
523677,30:05.5,IMU,356724753,0,0.004477771,0.002120513,0.002722501,-4.824815,0.7115042,-8.611932,0,0,38.87099,1,1,1000,1000
523776,30:05.6,IMU,356764737,0,0.004782261,0.00228815,0.002626557,-4.826125,0.7101313,-8.614244,0,0,38.87181,1,1,1000,1000
523830,30:05.6,IMU,356804721,0,0.004614379,0.002451748,0.002756955,-4.82513,0.7111236,-8.611072,0,0,38.87263,1,1,1000,1000
523928,30:05.7,IMU,356844705,0,0.00446997,0.002542973,0.002811675,-4.824261,0.7093586,-8.610129,0,0,38.87345,1,1,1000,1000
523980,30:05.7,IMU,356884689,0,0.00439109,0.00266716,0.002874179,-4.8254,0.7113361,-8.606685,0,0,38.87426,1,1,1000,1000
524032,30:05.7,IMU,356924673,0,0.004267277,0.003707486,0.002985992,-4.825232,0.7092805,-8.606741,0,0,38.87508,1,1,1000,1000
524131,30:05.8,IMU,356964657,0,-0.001400763,0.02486958,0.003669498,-4.827932,0.7094061,-8.618052,0,0,38.8759,1,1,1000,1000
524185,30:05.8,IMU,357004641,0,-0.004301626,0.04663951,0.004357739,-4.83212,0.7094513,-8.616901,0,0,38.87671,1,1,1000,1000
524285,30:05.9,IMU,357044625,0,-0.004650136,0.06190429,0.005129163,-4.837638,0.7094554,-8.622403,0,0,38.87753,1,1,1000,1000
524336,30:05.9,IMU,357084609,0,0.000971534,0.07436906,0.00558885,-4.844532,0.7086824,-8.615427,0,0,38.87835,1,1,1000,1000
524390,30:05.9,IMU,357124593,0,0.001389849,0.08081205,0.006487518,-4.851033,0.7082541,-8.619589,0,0,38.87916,1,1,1000,1000
524489,30:06.0,IMU,357165410,0,0.006858091,0.08996172,0.007169089,-4.8567,0.7081705,-8.612597,0,0,38.88,1,1,999,999
524543,30:06.0,IMU,357205394,0,0.01375328,0.1006892,0.007837471,-4.862687,0.7085813,-8.611232,0,0,38.88081,1,1,999,999
524642,30:06.1,IMU,357245378,0,0.01601239,0.101965,0.008609537,-4.868683,0.7080246,-8.611798,0,0,38.88163,1,1,999,999
524693,30:06.1,IMU,357285362,0,0.02334206,0.101375,0.009088192,-4.871271,0.7110568,-8.609145,0,0,38.88245,1,1,999,999
524746,30:06.1,IMU,357325346,0,0.0294996,0.1008055,0.009750248,-4.872565,0.7118915,-8.602285,0,0,38.88326,1,1,999,999
524845,30:06.2,IMU,357365330,0,0.03474884,0.1008567,0.01053606,-4.872585,0.7143083,-8.59725,0,0,38.88408,1,1,999,999
524900,30:06.2,IMU,357405314,0,0.03844916,0.1014151,0.01148271,-4.871628,0.7153127,-8.592616,0,0,38.8849,1,1,999,999
525001,30:06.3,IMU,357445298,0,0.04108479,0.1016307,0.01267882,-4.869197,0.7176098,-8.590636,0,0,38.88571,1,1,999,999
525055,30:06.3,IMU,357485282,0,0.04478052,0.1013779,0.01379407,-4.866153,0.7198618,-8.590675,0,0,38.88652,1,1,999,999
525107,30:06.3,IMU,357525266,0,0.04938572,0.1020894,0.01514965,-4.86189,0.7220921,-8.588736,0,0,38.88734,1,1,999,999
525208,30:06.4,IMU,357565250,0,0.04831245,0.1022192,0.01687912,-4.854249,0.7258148,-8.590294,0,0,38.88815,1,1,999,999
525262,30:06.4,IMU,357605234,0,0.05071476,0.1039555,0.0185404,-4.848708,0.7271684,-8.593851,0,0,38.88897,1,1,999,999
525361,30:06.5,IMU,357645218,0,0.05501146,0.1021708,0.02010252,-4.841044,0.7295931,-8.597882,0,0,38.88976,1,1,999,999
525412,30:06.5,IMU,357685202,0,0.05187638,0.101335,0.02246178,-4.831416,0.7326876,-8.600924,0,0,38.89058,1,1,999,999
525464,30:06.5,IMU,357725186,0,0.05774348,0.1034883,0.02447065,-4.820792,0.734365,-8.604354,0,0,38.89139,1,1,999,999
525563,30:06.6,IMU,357765170,0,0.05721081,0.1044655,0.02697711,-4.810208,0.7386454,-8.613568,0,0,38.8922,1,1,999,999
525617,30:06.6,IMU,357805154,0,0.05951031,0.1073361,0.02978323,-4.79945,0.7407392,-8.620522,0,0,38.89302,1,1,999,999
525715,30:06.7,IMU,357845138,0,0.05822344,0.107116,0.03260346,-4.784869,0.7450336,-8.623854,0,0,38.89384,1,1,999,999
525767,30:06.7,IMU,357885122,0,0.05946189,0.1079431,0.03555997,-4.771976,0.7476636,-8.638084,0,0,38.89465,1,1,999,999
525820,30:06.7,IMU,357925106,0,0.05876356,0.1095738,0.03867516,-4.757024,0.7509211,-8.641376,0,0,38.89546,1,1,999,999
525919,30:06.8,IMU,357965090,0,0.06274068,0.1084886,0.0416266,-4.739944,0.7554041,-8.651557,0,0,38.89628,1,1,999,999
525973,30:06.8,IMU,358005074,0,0.06317126,0.1093145,0.04494957,-4.722722,0.7589818,-8.662445,0,0,38.89709,1,1,999,999
526073,30:06.9,IMU,358045058,0,0.06569993,0.110036,0.04814736,-4.70368,0.762125,-8.669674,0,0,38.89793,1,1,999,999
526124,30:06.9,IMU,358085042,0,0.06588148,0.1147826,0.0518378,-4.685519,0.7676051,-8.690259,0,0,38.89874,1,1,999,999
526177,30:06.9,IMU,358125026,0,0.06560093,0.1130219,0.05540601,-4.664796,0.7711661,-8.695342,0,0,38.89955,1,1,999,999
526277,30:07.0,IMU,358165010,0,0.06782724,0.1101559,0.05906339,-4.644365,0.7747248,-8.709571,0,0,38.90036,1,1,1000,1000
526331,30:07.0,IMU,358204994,0,0.07197019,0.1077913,0.06257332,-4.621324,0.7808619,-8.719462,0,0,38.90116,1,1,1000,1000
526429,30:07.1,IMU,358244978,0,0.07267238,0.1052363,0.06654859,-4.597973,0.7843822,-8.735829,0,0,38.90197,1,1,1000,1000
526480,30:07.1,IMU,358284962,0,0.07235309,0.1006595,0.07071745,-4.573162,0.790833,-8.748447,0,0,38.90279,1,1,1000,1000
526533,30:07.1,IMU,358324946,0,0.07424922,0.09525001,0.0746595,-4.545946,0.7960916,-8.758053,0,0,38.90359,1,1,1000,1000
526632,30:07.2,IMU,358364930,0,0.07580646,0.08670245,0.07883187,-4.518702,0.8019524,-8.774282,0,0,38.90441,1,1,1000,1000
526687,30:07.2,IMU,358404914,0,0.07808399,0.07880872,0.08317338,-4.490206,0.8084533,-8.785673,0,0,38.90522,1,1,1000,1000
526788,30:07.3,IMU,358444898,0,0.0800835,0.0719985,0.0876338,-4.461003,0.8140203,-8.795071,0,0,38.90604,1,1,1000,1000
526842,30:07.3,IMU,358484882,0,0.08113942,0.06655978,0.09252954,-4.429533,0.820511,-8.806916,0,0,38.90685,1,1,1000,1000
526895,30:07.3,IMU,358524866,0,0.08337057,0.0618466,0.0974791,-4.400809,0.8270974,-8.827395,0,0,38.90766,1,1,1000,1000
526997,30:07.4,IMU,358564850,0,0.08368391,0.05791199,0.1028666,-4.369943,0.8342874,-8.842194,0,0,38.90847,1,1,1000,1000
527051,30:07.4,IMU,358604834,0,0.08932769,0.0578355,0.1083538,-4.337452,0.843502,-8.850834,0,0,38.90928,1,1,1000,1000
527150,30:07.5,IMU,358644818,0,0.0893096,0.05744205,0.1142365,-4.304774,0.852061,-8.861578,0,0,38.9101,1,1,1000,1000
527201,30:07.5,IMU,358684802,0,0.09113964,0.05407641,0.1202109,-4.273568,0.860296,-8.88201,0,0,38.91091,1,1,1000,1000
527253,30:07.5,IMU,358724786,0,0.09212846,0.05592832,0.126425,-4.241015,0.8684121,-8.891746,0,0,38.91172,1,1,1000,1000
527352,30:07.6,IMU,358764770,0,0.09241784,0.05677223,0.1328924,-4.208062,0.8782439,-8.904276,0,0,38.91253,1,1,1000,1000
527406,30:07.6,IMU,358804754,0,0.09386245,0.05485815,0.1394218,-4.176746,0.8876598,-8.928878,0,0,38.91335,1,1,1000,1000
527504,30:07.7,IMU,358844738,0,0.09917937,0.05565189,0.1459623,-4.144668,0.8974452,-8.938027,0,0,38.91415,1,1,1000,1000
527555,30:07.7,IMU,358884722,0,0.1006223,0.05784313,0.1529988,-4.111004,0.9087976,-8.946379,0,0,38.91497,1,1,1000,1000
527608,30:07.7,IMU,358924706,0,0.1012909,0.05537103,0.1602743,-4.077975,0.9208549,-8.963627,0,0,38.91578,1,1,1000,1000
527707,30:07.8,IMU,358964690,0,0.1021572,0.05714272,0.1678363,-4.045815,0.9321654,-8.980171,0,0,38.91659,1,1,1000,1000
527761,30:07.8,IMU,359004674,0,0.1056412,0.0610867,0.1754944,-4.011677,0.9440596,-8.991393,0,0,38.9174,1,1,1000,1000
527861,30:07.9,IMU,359044658,0,0.1076714,0.06192544,0.1834333,-3.978263,0.9567574,-9.007851,0,0,38.91821,1,1,1000,1000
527912,30:07.9,IMU,359084642,0,0.1108209,0.06101822,0.1916869,-3.942981,0.9689699,-9.024514,0,0,38.91902,1,1,1000,1000
527965,30:07.9,IMU,359124626,0,0.1124975,0.06082441,0.2000375,-3.907528,0.9824408,-9.036701,0,0,38.91983,1,1,1000,1000
528065,30:08.0,IMU,359164610,0,0.1185483,0.06178501,0.2086108,-3.873491,0.9982592,-9.051893,0,0,38.92064,1,1,999,999
528119,30:08.0,IMU,359204594,0,0.1187323,0.06305426,0.2177431,-3.838886,1.012663,-9.063167,0,0,38.92146,1,1,999,999
528218,30:08.1,IMU,359244578,0,0.1240228,0.06322012,0.2269586,-3.801799,1.028502,-9.077333,0,0,38.92226,1,1,999,999
528269,30:08.1,IMU,359285395,0,0.1242423,0.0644462,0.2367619,-3.76532,1.04567,-9.094852,0,0,38.9231,1,1,999,999
528322,30:08.1,IMU,359325379,0,0.1261578,0.0634511,0.2465132,-3.726881,1.062163,-9.104969,0,0,38.9239,1,1,999,999
528421,30:08.2,IMU,359365363,0,0.1287556,0.06119313,0.256489,-3.690388,1.079303,-9.12435,0,0,38.92471,1,1,999,999
528475,30:08.2,IMU,359405347,0,0.1283856,0.0597298,0.2667786,-3.65107,1.096748,-9.140892,0,0,38.92553,1,1,999,999
528577,30:08.3,IMU,359445331,0,0.1310882,0.05955901,0.2771869,-3.610142,1.116191,-9.151001,0,0,38.92633,1,1,999,999
528631,30:08.3,IMU,359485315,0,0.1354789,0.05780854,0.2878646,-3.571402,1.135631,-9.16888,0,0,38.92714,1,1,999,999
528683,30:08.3,IMU,359525299,0,0.1382293,0.05721366,0.2986559,-3.532093,1.15577,-9.181975,0,0,38.92796,1,1,999,999
528784,30:08.4,IMU,359565283,0,0.140305,0.05647592,0.3098558,-3.487933,1.176009,-9.189364,0,0,38.92876,1,1,999,999
528838,30:08.4,IMU,359605267,0,0.1420131,0.05584345,0.3212066,-3.446793,1.197584,-9.210905,0,0,38.92957,1,1,999,999
528939,30:08.5,IMU,359645251,0,0.1462903,0.05391288,0.3324187,-3.404878,1.218311,-9.230135,0,0,38.93038,1,1,999,999
528990,30:08.5,IMU,359685235,0,0.1477946,0.0514727,0.3440037,-3.361183,1.242359,-9.238388,0,0,38.93119,1,1,999,999
529042,30:08.5,IMU,359725219,0,0.148991,0.04896117,0.3554747,-3.31817,1.264651,-9.254719,0,0,38.93198,1,1,999,999
529141,30:08.6,IMU,359765203,0,0.1530452,0.04333599,0.3669789,-3.272641,1.288535,-9.26904,0,0,38.93279,1,1,999,999
529195,30:08.6,IMU,359805187,0,0.1523122,0.03694269,0.3787566,-3.226616,1.312798,-9.279718,0,0,38.9336,1,1,999,999
529293,30:08.7,IMU,359845171,0,0.1491711,0.03200599,0.3907647,-3.18262,1.337132,-9.297074,0,0,38.93441,1,1,999,999
529345,30:08.7,IMU,359885155,0,0.1468549,0.019437,0.4020938,-3.135185,1.362932,-9.310471,0,0,38.93522,1,1,999,999
529397,30:08.7,IMU,359925139,0,0.1447035,0.01009535,0.4132503,-3.084826,1.388349,-9.317783,0,0,38.93602,1,1,999,999
529497,30:08.8,IMU,359965123,0,0.1429661,-0.000827506,0.4239212,-3.039857,1.412928,-9.335163,0,0,38.93683,1,1,999,999
529551,30:08.8,IMU,360005107,0,0.1378611,-0.01319879,0.4341729,-2.989724,1.439691,-9.341659,0,0,38.93764,1,1,999,999
529651,30:08.9,IMU,360045091,0,0.1319253,-0.02480842,0.4436886,-2.940818,1.463546,-9.345622,0,0,38.93845,1,1,999,999
529702,30:08.9,IMU,360085075,0,0.1268148,-0.03676961,0.4522574,-2.894303,1.491294,-9.353662,0,0,38.93926,1,1,999,999
529757,30:08.9,IMU,360125059,0,0.1230591,-0.0440704,0.4600714,-2.845495,1.517127,-9.366381,0,0,38.94009,1,1,999,999
529860,30:09.0,IMU,360165043,0,0.1164455,-0.04635252,0.4668061,-2.79846,1.543402,-9.378078,0,0,38.9409,1,1,999,999
529914,30:09.0,IMU,360205027,0,0.1106102,-0.05095446,0.4721869,-2.751547,1.570911,-9.382588,0,0,38.9417,1,1,999,999
530012,30:09.1,IMU,360245011,0,0.1107188,-0.05922532,0.4760248,-2.707003,1.595602,-9.392926,0,0,38.94251,1,1,999,999
530063,30:09.1,IMU,360284995,0,0.1067691,-0.06540843,0.4788448,-2.664482,1.621501,-9.397166,0,0,38.9433,1,1,999,999
530116,30:09.1,IMU,360324979,0,0.1071064,-0.07115021,0.4802024,-2.620353,1.647503,-9.400652,0,0,38.9441,1,1,999,999
530215,30:09.2,IMU,360364963,0,0.1016448,-0.07575953,0.4804645,-2.578515,1.671503,-9.40677,0,0,38.94491,1,1,999,999
530269,30:09.2,IMU,360404947,0,0.099016,-0.07904065,0.4794132,-2.538532,1.696064,-9.41244,0,0,38.94572,1,1,999,999
530371,30:09.3,IMU,360444931,0,0.09757162,-0.07966737,0.4771843,-2.498966,1.718537,-9.41561,0,0,38.94653,1,1,999,999
530425,30:09.3,IMU,360484915,0,0.09089815,-0.07979602,0.4739712,-2.46338,1.74028,-9.422499,0,0,38.94733,1,1,999,999
530477,30:09.3,IMU,360524899,0,0.08407089,-0.07724984,0.4697431,-2.428212,1.761454,-9.43204,0,0,38.94814,1,1,999,999
530579,30:09.4,IMU,360564883,0,0.07616427,-0.07054698,0.4641832,-2.394742,1.781062,-9.430677,0,0,38.94895,1,1,999,999
530633,30:09.4,IMU,360604867,0,0.06845193,-0.0623417,0.4574396,-2.365107,1.80157,-9.433808,0,0,38.94975,1,1,999,999
530732,30:09.5,IMU,360644851,0,0.06056454,-0.05665682,0.4493964,-2.336399,1.818593,-9.438873,0,0,38.95056,1,1,999,999
530783,30:09.5,IMU,360684835,0,0.05325669,-0.05348138,0.4402973,-2.309092,1.836609,-9.437486,0,0,38.95137,1,1,999,999
530835,30:09.5,IMU,360724819,0,0.04869594,-0.04613208,0.4301796,-2.285558,1.851127,-9.435962,0,0,38.95218,1,1,999,999
530934,30:09.6,IMU,360764803,0,0.04203588,-0.04383798,0.4190285,-2.262004,1.865562,-9.435287,0,0,38.95298,1,1,999,999
530988,30:09.6,IMU,360804787,0,0.0410891,-0.04507033,0.4070106,-2.239695,1.879469,-9.433995,0,0,38.95378,1,1,999,999
531086,30:09.7,IMU,360844771,0,0.03336927,-0.04433324,0.3948255,-2.221938,1.888299,-9.428562,0,0,38.95459,1,1,999,999
531137,30:09.7,IMU,360884755,0,0.03235983,-0.04664942,0.3819625,-2.205407,1.900344,-9.426697,0,0,38.9554,1,1,999,999
531189,30:09.7,IMU,360924739,0,0.02821171,-0.0490851,0.3688457,-2.189933,1.910352,-9.423896,0,0,38.9562,1,1,999,999
531289,30:09.8,IMU,360964723,0,0.02634902,-0.05225745,0.3554741,-2.177364,1.91849,-9.418749,0,0,38.95701,1,1,999,999
531343,30:09.8,IMU,361004707,0,0.02610324,-0.05802147,0.3419808,-2.166551,1.924779,-9.413106,0,0,38.95782,1,1,999,999
531443,30:09.9,IMU,361044691,0,0.0202313,-0.05873751,0.3288568,-2.157403,1.931122,-9.409697,0,0,38.95862,1,1,999,999
531494,30:09.9,IMU,361084675,0,0.01680246,-0.06434558,0.3154639,-2.150398,1.936357,-9.404173,0,0,38.95943,1,1,999,999
531547,30:09.9,IMU,361124659,0,0.0122375,-0.0683298,0.3026955,-2.145596,1.940637,-9.396174,0,0,38.96023,1,1,999,999
531647,30:10.0,IMU,361164643,0,0.01200099,-0.06942248,0.2900383,-2.140941,1.94453,-9.395471,0,0,38.96104,1,1,1000,1000
531701,30:10.0,IMU,361204627,0,0.01027385,-0.0751697,0.2776014,-2.140399,1.947541,-9.390865,0,0,38.96184,1,1,1000,1000
531800,30:10.1,IMU,361244611,0,0.007908472,-0.08179899,0.2654873,-2.139101,1.947806,-9.381783,0,0,38.96265,1,1,1000,1000
531851,30:10.1,IMU,361284595,0,0.001827495,-0.08499044,0.2537612,-2.141437,1.949462,-9.370073,0,0,38.96345,1,1,1000,1000
531904,30:10.1,IMU,361324579,0,0.002187257,-0.0889827,0.2423109,-2.145388,1.949843,-9.366765,0,0,38.96426,1,1,1000,1000
532003,30:10.2,IMU,361365396,0,-0.000599825,-0.08702256,0.2312318,-2.149567,1.950002,-9.361031,0,0,38.96508,1,1,1000,1000
532057,30:10.2,IMU,361405380,0,-0.003668919,-0.08998993,0.2206077,-2.158031,1.948877,-9.35897,0,0,38.96589,1,1,1000,1000
532158,30:10.3,IMU,361445364,0,-0.00720507,-0.097456,0.2101977,-2.165425,1.948846,-9.352302,0,0,38.96669,1,1,1000,1000
532213,30:10.3,IMU,361485348,0,-0.00985252,-0.1008303,0.2000953,-2.1744,1.947344,-9.343385,0,0,38.96749,1,1,1000,1000
532265,30:10.3,IMU,361525332,0,-0.01186129,-0.1040441,0.1901768,-2.185583,1.94501,-9.335117,0,0,38.9683,1,1,1000,1000
532366,30:10.4,IMU,361565316,0,-0.01462925,-0.1081787,0.1805773,-2.199385,1.942994,-9.330256,0,0,38.9691,1,1,1000,1000
532420,30:10.4,IMU,361605300,0,-0.01619536,-0.1111975,0.1712962,-2.21191,1.939562,-9.314922,0,0,38.96991,1,1,1000,1000
532518,30:10.5,IMU,361645284,0,-0.01906078,-0.1124959,0.1622688,-2.22771,1.937962,-9.31529,0,0,38.97071,1,1,1000,1000
532570,30:10.5,IMU,361685268,0,-0.02242031,-0.1179006,0.1535622,-2.243883,1.935776,-9.309117,0,0,38.97152,1,1,1000,1000
532622,30:10.5,IMU,361725252,0,-0.02551792,-0.120349,0.1453041,-2.261989,1.930048,-9.299675,0,0,38.97232,1,1,1000,1000
532721,30:10.6,IMU,361765236,0,-0.02734772,-0.1223873,0.1373281,-2.282069,1.927822,-9.294958,0,0,38.97312,1,1,1000,1000
532775,30:10.6,IMU,361805220,0,-0.02452812,-0.1321813,0.1293881,-2.300963,1.924534,-9.287474,0,0,38.97391,1,1,1000,1000
532873,30:10.7,IMU,361845204,0,-0.02556838,-0.1344978,0.1217781,-2.321901,1.920379,-9.268769,0,0,38.97471,1,1,1000,1000
532925,30:10.7,IMU,361885188,0,-0.03012241,-0.137917,0.1144349,-2.344041,1.916871,-9.263904,0,0,38.97551,1,1,1000,1000
532977,30:10.7,IMU,361925172,0,-0.03501501,-0.1344988,0.107618,-2.369174,1.912032,-9.262106,0,0,38.97632,1,1,1000,1000
533076,30:10.8,IMU,361965156,0,-0.03769816,-0.1379844,0.1007049,-2.394008,1.908361,-9.251682,0,0,38.97712,1,1,1000,1000
533131,30:10.8,IMU,362005140,0,-0.03572334,-0.1380646,0.09397217,-2.420951,1.904831,-9.241963,0,0,38.97792,1,1,1000,1000
533231,30:10.9,IMU,362045124,0,-0.04070221,-0.137213,0.08755957,-2.447489,1.897857,-9.22568,0,0,38.97873,1,1,1000,1000
533282,30:10.9,IMU,362085108,0,-0.04143709,-0.1390204,0.0813145,-2.477166,1.894715,-9.222363,0,0,38.97953,1,1,1000,1000
533335,30:10.9,IMU,362125092,0,-0.04509243,-0.13141,0.07548494,-2.507029,1.889623,-9.208469,0,0,38.98033,1,1,1000,1000
533435,30:11.0,IMU,362165076,0,-0.04697007,-0.1247657,0.06983462,-2.538971,1.884459,-9.205173,0,0,38.98113,1,1,999,999
533489,30:11.0,IMU,362205060,0,-0.04936565,-0.1165362,0.06458382,-2.571606,1.880226,-9.195545,0,0,38.98196,1,1,999,999
533588,30:11.1,IMU,362245044,0,-0.0492307,-0.1015586,0.05964136,-2.60507,1.875653,-9.183944,0,0,38.98276,1,1,999,999
533639,30:11.1,IMU,362285028,0,-0.05457332,-0.09459494,0.05506608,-2.642327,1.871267,-9.182865,0,0,38.98356,1,1,999,999
533692,30:11.1,IMU,362325012,0,-0.05561382,-0.07280828,0.05100137,-2.678233,1.865159,-9.165216,0,0,38.98436,1,1,999,999
533791,30:11.2,IMU,362364996,0,-0.057948,-0.05363331,0.04718011,-2.717108,1.85999,-9.152533,0,0,38.98515,1,1,999,999
533846,30:11.2,IMU,362404980,0,-0.05545956,-0.03592984,0.0435761,-2.756728,1.85411,-9.141068,0,0,38.98595,1,1,999,999
533946,30:11.3,IMU,362444964,0,-0.05904512,-0.01912301,0.04018107,-2.800262,1.849712,-9.129727,0,0,38.98675,1,1,999,999
534002,30:11.3,IMU,362484948,0,-0.06161731,-0.005794463,0.03707867,-2.840869,1.844055,-9.102744,0,0,38.98755,1,1,999,999
534055,30:11.3,IMU,362524932,0,-0.06280257,0.003185011,0.03411414,-2.881811,1.839063,-9.08157,0,0,38.98835,1,1,999,999
534157,30:11.4,IMU,362564916,0,-0.06205347,0.01057608,0.03119238,-2.923731,1.832811,-9.05287,0,0,38.98915,1,1,999,999
534211,30:11.4,IMU,362604900,0,-0.06201714,0.01590677,0.02839665,-2.965141,1.827756,-9.038057,0,0,38.98996,1,1,999,999
534309,30:11.5,IMU,362644884,0,-0.06055979,0.01864389,0.02536339,-3.005919,1.822945,-9.011011,0,0,38.99076,1,1,999,999
534361,30:11.5,IMU,362684868,0,-0.0533505,0.01718273,0.02212591,-3.045915,1.819057,-8.992824,0,0,38.99156,1,1,999,999
534413,30:11.5,IMU,362724852,0,-0.04557294,0.01572979,0.01904286,-3.086401,1.81559,-8.974452,0,0,38.99236,1,1,999,999
534512,30:11.6,IMU,362764836,0,-0.0337882,0.014333,0.01573188,-3.125995,1.812935,-8.956997,0,0,38.99316,1,1,999,999
534566,30:11.6,IMU,362804820,0,-0.02165137,0.01308576,0.01247113,-3.163124,1.810873,-8.93804,0,0,38.99396,1,1,999,999
534664,30:11.7,IMU,362844804,0,-0.009262124,0.009336838,0.008961786,-3.201476,1.809658,-8.926598,0,0,38.99476,1,1,999,999
534716,30:11.7,IMU,362884788,0,-0.000150184,0.006174415,0.005730592,-3.236759,1.809323,-8.912881,0,0,38.99556,1,1,999,999
534768,30:11.7,IMU,362924772,0,0.007310056,0.005776848,0.002612991,-3.27287,1.807681,-8.895057,0,0,38.99636,1,1,999,999
534867,30:11.8,IMU,362964756,0,0.01312834,0.002695563,-0.000243431,-3.308805,1.807395,-8.885576,0,0,38.99716,1,1,999,999
534922,30:11.8,IMU,363004740,0,0.01728274,-0.002228897,-0.002915609,-3.345082,1.806639,-8.876626,0,0,38.99796,1,1,999,999
535022,30:11.9,IMU,363044724,0,0.01932282,-0.002898782,-0.004924191,-3.378017,1.805544,-8.859337,0,0,38.99876,1,1,999,999
535073,30:11.9,IMU,363084708,0,0.0207362,-0.005396103,-0.006600364,-3.411344,1.804554,-8.850084,0,0,38.99957,1,1,999,999
535126,30:11.9,IMU,363124692,0,0.02449322,-0.004313997,-0.007933967,-3.444832,1.802716,-8.844386,0,0,39.00036,1,1,999,999
535225,30:12.0,IMU,363164676,0,0.02709038,-0.006688652,-0.009207783,-3.477011,1.801799,-8.832537,0,0,39.00116,1,1,1000,1000
535280,30:12.0,IMU,363204660,0,0.02995882,-0.008045823,-0.0101025,-3.508538,1.798913,-8.819948,0,0,39.00196,1,1,1000,1000
535379,30:12.1,IMU,363244644,0,0.02784334,-0.004740746,-0.009949398,-3.53899,1.796868,-8.812781,0,0,39.00276,1,1,1000,1000
535430,30:12.1,IMU,363284628,0,0.02654569,-0.00395025,-0.00986475,-3.57187,1.795129,-8.811987,0,0,39.00356,1,1,1000,1000
535483,30:12.1,IMU,363324612,0,0.02742608,-0.004719818,-0.00983481,-3.60194,1.792153,-8.804502,0,0,39.00436,1,1,1000,1000
535582,30:12.2,IMU,363364596,0,0.02765685,-0.007686762,-0.009635666,-3.628941,1.788917,-8.791673,0,0,39.00516,1,1,1000,1000
535636,30:12.2,IMU,363404580,0,0.028491,-0.008107698,-0.009140627,-3.658949,1.786505,-8.784178,0,0,39.00596,1,1,1000,1000
535736,30:12.3,IMU,363445397,0,0.02754205,-0.007191044,-0.008468728,-3.687703,1.784114,-8.781149,0,0,39.00678,1,1,1000,1000
535791,30:12.3,IMU,363485381,0,0.02486352,-0.005741014,-0.007652715,-3.714042,1.780981,-8.775018,0,0,39.00758,1,1,1000,1000
535844,30:12.3,IMU,363525365,0,0.02387268,-0.005203976,-0.006974536,-3.741007,1.777216,-8.765778,0,0,39.00838,1,1,1000,1000
535947,30:12.4,IMU,363565349,0,0.02407545,-0.005037376,-0.006532938,-3.767704,1.774358,-8.767361,0,0,39.00918,1,1,1000,1000
536001,30:12.4,IMU,363605333,0,0.02503643,-0.004066802,-0.006194172,-3.793602,1.77172,-8.761515,0,0,39.00998,1,1,1000,1000
536099,30:12.5,IMU,363645317,0,0.02612593,-0.003514707,-0.005875646,-3.816632,1.768018,-8.756832,0,0,39.01077,1,1,1000,1000
536151,30:12.5,IMU,363685301,0,0.0234875,-0.002242277,-0.005477456,-3.842321,1.766107,-8.753086,0,0,39.01157,1,1,1000,1000
536203,30:12.5,IMU,363725285,0,0.02290412,-0.002215175,-0.005183381,-3.866362,1.760084,-8.747303,0,0,39.01237,1,1,1000,1000
536302,30:12.6,IMU,363765269,0,0.02458594,-0.00228786,-0.004763501,-3.887997,1.757376,-8.741307,0,0,39.01317,1,1,1000,1000
536356,30:12.6,IMU,363805253,0,0.02641371,-0.002733825,-0.00459919,-3.910708,1.755343,-8.741641,0,0,39.01397,1,1,1000,1000
536454,30:12.7,IMU,363845237,0,0.02404698,-0.002553511,-0.004321958,-3.933826,1.750923,-8.734271,0,0,39.01477,1,1,1000,1000
536506,30:12.7,IMU,363885221,0,0.02276085,-0.003607497,-0.00409887,-3.955039,1.746571,-8.735285,0,0,39.01554,1,1,1000,1000
536558,30:12.7,IMU,363925205,0,0.02318038,-0.00340052,-0.003906738,-3.974564,1.742351,-8.726974,0,0,39.01634,1,1,1000,1000
536657,30:12.8,IMU,363965189,0,0.02167949,-0.003462058,-0.003494249,-3.995068,1.739311,-8.728648,0,0,39.01714,1,1,1000,1000
536711,30:12.8,IMU,364005173,0,0.02129098,-0.003969825,-0.003087447,-4.016407,1.735118,-8.725599,0,0,39.01794,1,1,1000,1000
536812,30:12.9,IMU,364045157,0,0.01936236,-0.002912636,-0.002588307,-4.035982,1.73106,-8.721749,0,0,39.01873,1,1,1000,1000
536863,30:12.9,IMU,364085141,0,0.01729323,-0.001513155,-0.001967288,-4.055089,1.727096,-8.718615,0,0,39.01953,1,1,1000,1000
536918,30:12.9,IMU,364125125,0,0.01582718,-0.000768192,-0.0014326,-4.073913,1.722225,-8.718601,0,0,39.02033,1,1,1000,1000
537017,30:13.0,IMU,364165109,0,0.01056626,0.000889339,-0.000510159,-4.091645,1.717455,-8.71956,0,0,39.02113,1,1,999,999
537073,30:13.0,IMU,364205093,0,0.009884986,0.001816302,0.000147508,-4.109524,1.714455,-8.713409,0,0,39.02192,1,1,999,999
537171,30:13.1,IMU,364245077,0,0.009182516,0.004485552,0.00074896,-4.126012,1.708944,-8.710897,0,0,39.02272,1,1,999,999
537222,30:13.1,IMU,364285061,0,0.008542635,0.004182621,0.001106572,-4.141898,1.703491,-8.710321,0,0,39.02354,1,1,999,999
537275,30:13.1,IMU,364325045,0,0.007997942,0.00475624,0.001298253,-4.160327,1.700355,-8.708368,0,0,39.02433,1,1,999,999
537374,30:13.2,IMU,364365029,0,0.005504064,0.004589387,0.001658183,-4.174853,1.69595,-8.709405,0,0,39.02513,1,1,999,999
537428,30:13.2,IMU,364405013,0,0.003331136,0.004436087,0.001947642,-4.189976,1.691083,-8.70195,0,0,39.02593,1,1,999,999
537528,30:13.3,IMU,364444997,0,0.000568673,0.004371365,0.002537469,-4.204064,1.688391,-8.706823,0,0,39.0267,1,1,999,999
537583,30:13.3,IMU,364484981,0,-0.000358208,0.00421904,0.003219052,-4.220545,1.682019,-8.703396,0,0,39.0275,1,1,999,999
537636,30:13.3,IMU,364524965,0,-0.002495718,0.006157469,0.004000835,-4.233821,1.679076,-8.706065,0,0,39.0283,1,1,999,999
537738,30:13.4,IMU,364564949,0,-0.001769975,0.007466593,0.004351576,-4.246413,1.6761,-8.707388,0,0,39.02909,1,1,999,999
537792,30:13.4,IMU,364604933,0,-0.001188206,0.007827351,0.004686707,-4.260296,1.672096,-8.703946,0,0,39.02989,1,1,999,999
537890,30:13.5,IMU,364644917,0,-0.002655179,0.006896235,0.004823705,-4.272912,1.668197,-8.706676,0,0,39.03069,1,1,999,999
537941,30:13.5,IMU,364684901,0,-0.005791353,0.007440291,0.005067514,-4.285345,1.664782,-8.707225,0,0,39.03148,1,1,999,999
537994,30:13.5,IMU,364724885,0,-0.008915207,0.006972142,0.005252488,-4.296471,1.661185,-8.700546,0,0,39.03228,1,1,999,999
538095,30:13.6,IMU,364764869,0,-0.009319738,0.006544881,0.005448245,-4.308242,1.657611,-8.698874,0,0,39.03307,1,1,999,999
538149,30:13.6,IMU,364804853,0,-0.008402632,0.006219143,0.005880752,-4.31765,1.65282,-8.701763,0,0,39.03387,1,1,999,999
538247,30:13.7,IMU,364844837,0,-0.007017144,0.007271,0.00628509,-4.330364,1.651557,-8.703794,0,0,39.03466,1,1,999,999
538299,30:13.7,IMU,364884821,0,-0.007645894,0.008132866,0.006486505,-4.341022,1.648398,-8.699295,0,0,39.03546,1,1,999,999
538351,30:13.7,IMU,364924805,0,-0.01090755,0.008506794,0.006862113,-4.349884,1.644436,-8.697313,0,0,39.03625,1,1,999,999
538450,30:13.8,IMU,364964789,0,-0.009974559,0.009343997,0.006915808,-4.359422,1.642489,-8.695857,0,0,39.03705,1,1,999,999
538504,30:13.8,IMU,365004773,0,-0.01054313,0.01002775,0.007142227,-4.368782,1.640794,-8.694497,0,0,39.03784,1,1,999,999
538605,30:13.9,IMU,365044757,0,-0.01154263,0.01071976,0.007293491,-4.375533,1.637575,-8.685005,0,0,39.03864,1,1,999,999
538656,30:13.9,IMU,365084741,0,-0.01413478,0.01137178,0.007565057,-4.385058,1.634561,-8.680656,0,0,39.03943,1,1,999,999
538709,30:13.9,IMU,365124725,0,-0.01565328,0.01192432,0.00779547,-4.391995,1.632919,-8.677095,0,0,39.04023,1,1,999,999
538808,30:14.0,IMU,365164709,0,-0.0139976,0.01225366,0.007700239,-4.398911,1.63053,-8.673177,0,0,39.04102,1,1,999,999
538864,30:14.0,IMU,365204693,0,-0.01407186,0.01171364,0.007652734,-4.407349,1.629603,-8.671048,0,0,39.04182,1,1,999,999
538962,30:14.1,IMU,365244677,0,-0.01642476,0.008647646,0.00765597,-4.414449,1.627936,-8.672197,0,0,39.04261,1,1,999,999
539013,30:14.1,IMU,365284661,0,-0.01718442,0.008212846,0.007582147,-4.421124,1.625914,-8.669195,0,0,39.0434,1,1,999,999
539066,30:14.1,IMU,365324645,0,-0.01764474,0.007637975,0.007398828,-4.427308,1.623988,-8.664991,0,0,39.0442,1,1,999,999
539165,30:14.2,IMU,365364629,0,-0.01608227,0.007123805,0.007472186,-4.433535,1.624076,-8.665391,0,0,39.04499,1,1,999,999
539219,30:14.2,IMU,365404613,0,-0.01268519,0.00824406,0.007565543,-4.440143,1.623495,-8.671274,0,0,39.04579,1,1,999,999
539319,30:14.3,IMU,365444597,0,-0.01090943,0.01080046,0.007968361,-4.445153,1.623157,-8.667301,0,0,39.04658,1,1,999,999
539374,30:14.3,IMU,365484581,0,-0.01080514,0.01019754,0.007993034,-4.451266,1.622146,-8.673231,0,0,39.04737,1,1,999,999
539426,30:14.3,IMU,365525398,0,-0.01121706,0.009798337,0.007947274,-4.456961,1.62227,-8.671074,0,0,39.04819,1,1,999,999
539529,30:14.4,IMU,365565382,0,-0.01402492,0.008848302,0.007905716,-4.4607,1.621805,-8.66822,0,0,39.04898,1,1,999,999
539583,30:14.4,IMU,365605366,0,-0.01244742,0.008857536,0.00773698,-4.46671,1.623869,-8.678737,0,0,39.04977,1,1,999,999
539681,30:14.5,IMU,365645350,0,-0.01279674,0.009951487,0.007965209,-4.47315,1.623021,-8.68324,0,0,39.05057,1,1,999,999
539732,30:14.5,IMU,365685334,0,-0.01085368,0.009283855,0.007742457,-4.476575,1.623917,-8.682718,0,0,39.05136,1,1,999,999
539785,30:14.5,IMU,365725318,0,-0.009234257,0.007831229,0.007534691,-4.47991,1.624869,-8.682537,0,0,39.05215,1,1,999,999
539884,30:14.6,IMU,365765302,0,-0.007856086,0.007332908,0.007142387,-4.484596,1.625186,-8.677584,0,0,39.05295,1,1,999,999
539938,30:14.6,IMU,365805286,0,-0.005889731,0.006843413,0.006801529,-4.488354,1.624737,-8.677333,0,0,39.05374,1,1,999,999
540036,30:14.7,IMU,365845270,0,-0.002073389,0.006769014,0.006446118,-4.492687,1.627357,-8.691253,0,0,39.05453,1,1,999,999
540088,30:14.7,IMU,365885254,0,0.000736821,0.006894999,0.005936106,-4.495365,1.629202,-8.683961,0,0,39.05533,1,1,999,999
540140,30:14.7,IMU,365925238,0,0.00357619,0.004037119,0.005486766,-4.497393,1.629415,-8.683006,0,0,39.05612,1,1,999,999
540239,30:14.8,IMU,365965222,0,0.01083435,0.001592333,0.004827456,-4.500154,1.632655,-8.683149,0,0,39.05689,1,1,999,999
540293,30:14.8,IMU,366005206,0,0.01578232,-0.000572223,0.004359492,-4.502348,1.634084,-8.674005,0,0,39.05769,1,1,999,999
540393,30:14.9,IMU,366045190,0,0.01141075,0.01767304,0.004956104,-4.504538,1.63587,-8.671616,0,0,39.05848,1,1,999,999
