Unnamed: 0,Timestamp,Unnamed: 2,TimeUS,I,GyrX,GyrY,GyrZ,AccX,AccY,AccZ,EG,EA,T,GH,AH,GHz,AHz
1872,55:20.6,IMU,44805404,0,0.000625094,0.000635031,0.000657777,-0.001333293,-0.001545984,-9.817468,0,0,27.6644,1,1,1000,1000
1969,55:20.6,IMU,44845388,0,0.000604721,0.000612637,0.000632309,-0.000109841,-0.000743433,-9.815765,0,0,27.66671,1,1,1000,1000
2021,55:20.7,IMU,44885372,0,0.000675931,0.000591888,0.000713256,-0.000952018,-0.000918481,-9.81632,0,0,27.66902,1,1,1000,1000
2074,55:20.7,IMU,44925356,0,0.000631607,0.0005657,0.00060859,-0.000658516,-0.00092735,-9.81753,0,0,27.67133,1,1,1000,1000
2168,55:20.8,IMU,44965340,0,0.00060167,0.000660412,0.000613454,-0.000911965,-0.00097915,-9.818225,0,0,27.67364,1,1,1000,1000
2223,55:20.8,IMU,45005324,0,0.00062117,0.000613501,0.000723728,-0.001569872,-0.001615891,-9.81701,0,0,27.67595,1,1,1000,1000
2320,55:20.8,IMU,45045308,0,0.000543415,0.00068731,0.000608776,-0.000621478,-2.96e-05,-9.817985,0,0,27.67826,1,1,1000,1000
2370,55:20.9,IMU,45085292,0,0.000637391,0.000602019,0.000625779,-0.000110578,-0.000430424,-9.817263,0,0,27.68057,1,1,1000,1000
2423,55:20.9,IMU,45125276,0,0.000650672,0.000571466,0.000575277,-0.000851293,-0.001188986,-9.817429,0,0,27.68288,1,1,1000,1000
2518,55:21.0,IMU,45165260,0,0.00069815,0.000575685,0.00057493,-0.000217515,-0.001501223,-9.818148,0,0,27.68519,1,1,1000,1000
2572,55:21.0,IMU,45205244,0,0.000645257,0.000608679,0.000679177,-0.001616123,-0.001473771,-9.817567,0,0,27.6875,1,1,1000,1000
2667,55:21.0,IMU,45245228,0,0.000672219,0.000644884,0.000568324,-0.001955177,-0.000624006,-9.816854,0,0,27.68975,1,1,1000,1000
2718,55:21.1,IMU,45285212,0,0.000602091,0.000635594,0.000631215,-0.00103677,-0.001854443,-9.818073,0,0,27.69205,1,1,1000,1000
2770,55:21.1,IMU,45325196,0,0.000554617,0.000612314,0.000678734,-0.001572998,-0.001067738,-9.817563,0,0,27.69436,1,1,1000,1000
2868,55:21.2,IMU,45365180,0,0.000605913,0.000600164,0.000650047,-0.000661223,-0.000121232,-9.817028,0,0,27.69667,1,1,1000,1000
2923,55:21.2,IMU,45405164,0,0.000594886,0.000667762,0.000590857,-0.000146568,-0.000808017,-9.816818,0,0,27.69898,1,1,1000,1000
3020,55:21.2,IMU,45445148,0,0.000613877,0.000636226,0.00063167,-0.001960866,-0.000194417,-9.817755,0,0,27.70128,1,1,1000,1000
3072,55:21.3,IMU,45485132,0,0.000583245,0.000604223,0.000589897,-0.00044945,-0.000372473,-9.81773,0,0,27.70359,1,1,1000,1000
3125,55:21.3,IMU,45525116,0,0.00063795,0.000647233,0.000662048,-0.000799304,-0.001039435,-9.817279,0,0,27.7059,1,1,1000,1000
3222,55:21.4,IMU,45565100,0,0.000625672,0.000658213,0.000596862,-0.001461436,-0.001341523,-9.817475,0,0,27.7082,1,1,1000,1000
3276,55:21.4,IMU,45605084,0,0.000616589,0.000676871,0.000666705,-0.001474438,-0.001405652,-9.816075,0,0,27.71051,1,1,1000,1000
3370,55:21.4,IMU,45645068,0,0.000624128,0.000650982,0.000678353,-0.00145929,-0.000156484,-9.81745,0,0,27.71281,1,1,1000,1000
3420,55:21.5,IMU,45685052,0,0.000659177,0.000607687,0.000630069,-0.000418988,9.609425e-05,-9.81638,0,0,27.71518,1,1,1000,1000
3472,55:21.5,IMU,45725036,0,0.000541603,0.000654241,0.000637341,-0.001004492,-0.001675082,-9.817556,0,0,27.71748,1,1,1000,1000
3568,55:21.6,IMU,45765020,0,0.00057856,0.000602398,0.000645098,-0.001254445,-0.000411155,-9.816963,0,0,27.71978,1,1,1000,1000
3622,55:21.6,IMU,45805004,0,0.000636634,0.000648498,0.000627958,-0.000806989,-0.000656522,-9.818295,0,0,27.72209,1,1,1000,1000
3715,55:21.6,IMU,45844988,0,0.000648548,0.000565253,0.000661145,-0.00164601,-0.001225666,-9.816921,0,0,27.72433,1,1,1000,1000
3769,55:21.7,IMU,45884972,0,0.000666497,0.000633898,0.000639023,-0.000656435,-0.000696485,-9.81822,0,0,27.72664,1,1,1000,1000
3821,55:21.7,IMU,45924956,0,0.000680481,0.000604492,0.00062224,-0.000415547,-0.00093626,-9.816507,0,0,27.72894,1,1,1000,1000
3916,55:21.8,IMU,45964940,0,0.00066159,0.000644162,0.000614788,0.000682716,-0.001902733,-9.817341,0,0,27.73124,1,1,1000,1000
3971,55:21.8,IMU,46004924,0,0.000600622,0.000598741,0.000570031,-0.002197597,-0.000418786,-9.817375,0,0,27.73355,1,1,1000,1000
4067,55:21.8,IMU,46044908,0,0.000687524,0.000714314,0.000637927,-0.000974605,-0.001785211,-9.817762,0,0,27.73585,1,1,1000,1000
4118,55:21.9,IMU,46084892,0,0.000656668,0.000647354,0.00061113,-0.000354266,-0.000830917,-9.816699,0,0,27.73815,1,1,1000,1000
4171,55:21.9,IMU,46124876,0,0.000644092,0.000705364,0.000682061,8.883978e-05,-0.000501921,-9.818022,0,0,27.74045,1,1,1000,1000
4266,55:22.0,IMU,46164860,0,0.000666957,0.000679256,0.000660915,-0.001890423,-0.001333376,-9.816478,0,0,27.74275,1,1,1000,1000
4320,55:22.0,IMU,46204844,0,0.000683348,0.000691545,0.000625897,-0.002230802,-0.001213267,-9.818121,0,0,27.74505,1,1,1000,1000
4414,55:22.0,IMU,46244828,0,0.000614896,0.000633064,0.000578491,-0.000882989,-0.001609191,-9.817179,0,0,27.74735,1,1,1000,1000
4466,55:22.1,IMU,46284812,0,0.000593152,0.000692419,0.000530763,-0.000883212,-0.000364982,-9.817086,0,0,27.74965,1,1,1000,1000
4519,55:22.1,IMU,46324796,0,0.00058026,0.000573415,0.000607602,-0.001344232,7.185257e-05,-9.817587,0,0,27.75195,1,1,1000,1000
4614,55:22.2,IMU,46364780,0,0.000578037,0.000645206,0.000675122,-0.00107082,-0.000812135,-9.817329,0,0,27.75425,1,1,1000,1000
4671,55:22.2,IMU,46404764,0,0.000572478,0.00067263,0.000593283,-0.000799453,-0.001126733,-9.818096,0,0,27.75655,1,1,1000,1000
4767,55:22.2,IMU,46444748,0,0.000666589,0.000584449,0.000644212,-0.001809633,-0.001728104,-9.817657,0,0,27.75885,1,1,1000,1000
4820,55:22.3,IMU,46484732,0,0.000597229,0.000770974,0.000584019,-0.001456725,-0.001189961,-9.817753,0,0,27.76115,1,1,1000,1000
4873,55:22.3,IMU,46524716,0,0.000586602,0.000642197,0.000649452,-0.000713138,-0.001487057,-9.817367,0,0,27.76345,1,1,1000,1000
4971,55:22.4,IMU,46564700,0,0.000641723,0.000635765,0.000712639,-0.001107594,-0.000976009,-9.817788,0,0,27.76575,1,1,1000,1000
5025,55:22.4,IMU,46604684,0,0.000638881,0.000620016,0.000684387,-0.001484139,-0.001337311,-9.815849,0,0,27.76804,1,1,1000,1000
5119,55:22.4,IMU,46644668,0,0.000636629,0.000640655,0.000629024,-0.001290254,-0.001290274,-9.817911,0,0,27.77034,1,1,1000,1000
5173,55:22.5,IMU,46684652,0,0.000586465,0.000650046,0.000684382,-0.00068602,-0.001405913,-9.817844,0,0,27.77264,1,1,1000,1000
5225,55:22.5,IMU,46724636,0,0.00068855,0.000631212,0.000621203,-0.0002953,-0.000584306,-9.817656,0,0,27.77493,1,1,1000,1000
5320,55:22.6,IMU,46764620,0,0.00058983,0.000714681,0.000689595,0.000313908,-0.000190249,-9.818106,0,0,27.77723,1,1,1000,1000
5376,55:22.6,IMU,46804604,0,0.000591236,0.000669333,0.000618465,-4.01e-05,-0.001293973,-9.817011,0,0,27.77953,1,1,1000,1000
5469,55:22.6,IMU,46844588,0,0.000599973,0.000616871,0.000665908,-0.00023101,-0.000203292,-9.817122,0,0,27.78182,1,1,1000,1000
5522,55:22.7,IMU,46885405,0,0.000663256,0.00065729,0.000656053,-0.000619766,-0.001548444,-9.818385,0,0,27.78418,1,1,1000,1000
5575,55:22.7,IMU,46925389,0,0.000688349,0.000610783,0.00061524,-0.000684201,-0.00052555,-9.817415,0,0,27.78647,1,1,1000,1000
5670,55:22.8,IMU,46965373,0,0.000569873,0.000700298,0.000644013,-0.000481705,-0.001268511,-9.816938,0,0,27.78877,1,1,1000,1000
5725,55:22.8,IMU,47005357,0,0.0006086,0.000606146,0.000656202,0.000266877,-0.00056216,-9.816912,0,0,27.79106,1,1,1000,1000
5820,55:22.8,IMU,47045341,0,0.000574929,0.000670087,0.000583615,-9.59e-05,-0.001280881,-9.817795,0,0,27.79336,1,1,1000,1000
5872,55:22.9,IMU,47085325,0,0.000589824,0.000690793,0.000617701,-0.001711777,-0.001726344,-9.818386,0,0,27.79565,1,1,1000,1000
5925,55:22.9,IMU,47125309,0,0.000707566,0.000725969,0.000673436,-0.001164739,-0.001112267,-9.816978,0,0,27.79794,1,1,1000,1000
6019,55:23.0,IMU,47165293,0,0.000687585,0.000672462,0.000603868,-0.001598696,-0.00108459,-9.818316,0,0,27.80024,1,1,1000,1000
6074,55:23.0,IMU,47205277,0,0.000609001,0.000666318,0.000642452,-0.001632985,-0.00138454,-9.816453,0,0,27.80253,1,1,1000,1000
6168,55:23.0,IMU,47245261,0,0.000646154,0.000584203,0.000677025,0.000229213,-0.001958951,-9.819097,0,0,27.80482,1,1,1000,1000
6219,55:23.1,IMU,47285245,0,0.000594995,0.000624714,0.000686942,-0.000789178,-0.000235739,-9.816826,0,0,27.80712,1,1,1000,1000
6272,55:23.1,IMU,47325229,0,0.000723854,0.000664625,0.000626341,-0.001195321,0.000461289,-9.81691,0,0,27.80935,1,1,1000,1000
6368,55:23.2,IMU,47365213,0,0.000681169,0.000649795,0.000623377,-0.001334005,-0.001829153,-9.81717,0,0,27.81164,1,1,1000,1000
6424,55:23.2,IMU,47405197,0,0.000597692,0.000734859,0.000678676,-0.001197834,-0.001508788,-9.816574,0,0,27.81393,1,1,1000,1000
6520,55:23.2,IMU,47445181,0,0.00065046,0.000706557,0.000682693,-0.000430448,-0.00070259,-9.816519,0,0,27.81623,1,1,1000,1000
6574,55:23.3,IMU,47485165,0,0.000678836,0.000556017,0.00072733,-0.0001522,0.000428811,-9.817734,0,0,27.81852,1,1,1000,1000
6626,55:23.3,IMU,47525149,0,0.000623227,0.000652995,0.000727694,-0.001348937,-0.00120622,-9.816946,0,0,27.82081,1,1,1000,1000
6724,55:23.4,IMU,47565133,0,0.000628924,0.000664802,0.000665896,-0.000433509,-0.001997344,-9.817535,0,0,27.8231,1,1,1000,1000
6779,55:23.4,IMU,47605117,0,0.000683802,0.000630168,0.000633782,-0.001009065,5.707017e-05,-9.818313,0,0,27.82539,1,1,1000,1000
6872,55:23.4,IMU,47645101,0,0.000652368,0.000612993,0.00074568,-0.001496461,-0.000719475,-9.817385,0,0,27.82768,1,1,1000,1000
6924,55:23.5,IMU,47685085,0,0.000696786,0.000636271,0.00062368,-0.000214012,-0.000328704,-9.817404,0,0,27.82997,1,1,1000,1000
6977,55:23.5,IMU,47725069,0,0.000675559,0.000622556,0.000640906,-0.001197516,-0.000945889,-9.817085,0,0,27.83226,1,1,1000,1000
7072,55:23.6,IMU,47765053,0,0.000648705,0.000559451,0.000737392,-0.001044295,-0.000203857,-9.818608,0,0,27.8346,1,1,1000,1000
7126,55:23.6,IMU,47805037,0,0.000653555,0.000640749,0.000754373,-0.001166453,-0.001671484,-9.818482,0,0,27.83689,1,1,1000,1000
7221,55:23.6,IMU,47845021,0,0.000659831,0.000662663,0.000688737,-0.000247573,0.000206439,-9.817678,0,0,27.83918,1,1,1000,1000
7273,55:23.7,IMU,47885005,0,0.00069005,0.000660201,0.000646844,-0.001309316,3.258165e-05,-9.817922,0,0,27.84147,1,1,1000,1000
7327,55:23.7,IMU,47924989,0,0.000630346,0.000632584,0.000653122,-0.000763786,0.000302767,-9.817378,0,0,27.8437,1,1,1000,1000
7421,55:23.8,IMU,47964973,0,0.000677711,0.000771502,0.000639608,-0.001300188,-0.002731167,-9.817172,0,0,27.84599,1,1,1000,1000
7476,55:23.8,IMU,48004957,0,0.000680631,0.000613189,0.000691926,-0.001255236,-0.000492867,-9.81708,0,0,27.84827,1,1,1000,1000
7572,55:23.8,IMU,48044941,0,0.000630711,0.000634294,0.000692284,-0.001463122,-0.001375769,-9.817433,0,0,27.85056,1,1,1000,1000
7625,55:23.9,IMU,48084925,0,0.000578582,0.000726228,0.000730085,-0.001297208,-0.000572888,-9.817221,0,0,27.85284,1,1,1000,1000
7678,55:23.9,IMU,48124909,0,0.000719774,0.000674441,0.000692545,-0.001329366,-0.000298894,-9.817251,0,0,27.85513,1,1,1000,1000
7778,55:24.0,IMU,48164893,0,0.000647214,0.000678023,0.000642228,-0.000707676,-0.002659768,-9.817011,0,0,27.85742,1,1,1000,1000
7832,55:24.0,IMU,48204877,0,0.000639438,0.000685104,0.000678072,-0.000579758,-0.000687796,-9.817373,0,0,27.8597,1,1,1000,1000
7931,55:24.0,IMU,48244861,0,0.000670343,0.00063846,0.00064469,-0.000907121,-0.000923058,-9.817087,0,0,27.86199,1,1,1000,1000
7983,55:24.1,IMU,48284845,0,0.000686503,0.00070553,0.000670846,-0.001844993,-0.001195786,-9.817347,0,0,27.86427,1,1,1000,1000
8035,55:24.1,IMU,48324829,0,0.000673981,0.000661989,0.00072011,-0.001230479,-0.001470555,-9.816328,0,0,27.86656,1,1,1000,1000
8136,55:24.2,IMU,48364813,0,0.000673362,0.000637738,0.000663815,-0.000321277,-0.000862094,-9.817354,0,0,27.86884,1,1,1000,1000
8192,55:24.2,IMU,48404797,0,0.000660738,0.000643838,0.000630163,-0.000980548,-0.001630926,-9.817659,0,0,27.87113,1,1,1000,1000
8293,55:24.2,IMU,48444781,0,0.00061389,0.000794716,0.000593513,-0.000539405,-0.000237207,-9.817832,0,0,27.87341,1,1,1000,1000
8347,55:24.3,IMU,48484765,0,0.000686499,0.00063197,0.000651291,-0.001498313,-0.001891556,-9.816823,0,0,27.87569,1,1,1000,1000
8400,55:24.3,IMU,48524749,0,0.000706773,0.000668946,0.000680817,-0.00203743,-0.001145293,-9.817614,0,0,27.87798,1,1,1000,1000
8502,55:24.4,IMU,48564733,0,0.000608704,0.000700549,0.000649165,-0.001711508,-0.00130099,-9.817051,0,0,27.88026,1,1,1000,1000
8557,55:24.4,IMU,48604717,0,0.000646843,0.000664469,0.000722033,-0.000247672,-0.000634654,-9.818973,0,0,27.88254,1,1,1000,1000
8655,55:24.4,IMU,48644701,0,0.000622623,0.000633473,0.000702216,-0.001339124,-0.002449411,-9.817275,0,0,27.88482,1,1,1000,1000
8707,55:24.5,IMU,48684685,0,0.000688166,0.000670288,0.000735357,-0.001490506,-0.000618913,-9.817926,0,0,27.8871,1,1,1000,1000
8760,55:24.5,IMU,48724669,0,0.000681136,0.000729974,0.000673956,-0.000551642,-0.000215487,-9.817181,0,0,27.88939,1,1,1000,1000
8859,55:24.6,IMU,48764653,0,0.000701709,0.00067522,0.000715006,-0.002024377,-0.000112178,-9.817002,0,0,27.89167,1,1,1000,1000
8914,55:24.6,IMU,48804637,0,0.000627466,0.000631777,0.000683718,-0.001915712,-0.000708564,-9.817965,0,0,27.89395,1,1,1000,1000
9013,55:24.6,IMU,48844621,0,0.000643707,0.000709325,0.000646973,-0.000440332,-0.000817993,-9.817953,0,0,27.89623,1,1,1000,1000
9064,55:24.7,IMU,48884605,0,0.000658392,0.000669369,0.00069379,-0.000748962,-0.001296584,-9.817278,0,0,27.89851,1,1,1000,1000
9118,55:24.7,IMU,48924589,0,0.000595953,0.000632022,0.000726098,-0.000789466,-0.002050604,-9.818009,0,0,27.90079,1,1,1000,1000
9219,55:24.8,IMU,48965406,0,0.000700928,0.000640091,0.000622842,-0.000426974,-0.001397109,-9.817677,0,0,27.90313,1,1,1000,1000
9273,55:24.8,IMU,49005390,0,0.000642585,0.000697937,0.000577122,-0.001238477,-0.001352184,-9.817863,0,0,27.90541,1,1,1000,1000
9374,55:24.8,IMU,49045374,0,0.00068206,0.000612223,0.000707168,-0.00101973,-0.000749673,-9.817549,0,0,27.90768,1,1,1000,1000
9426,55:24.9,IMU,49085358,0,0.000657522,0.000710484,0.000702726,-0.001314244,-0.00118409,-9.81752,0,0,27.90996,1,1,1000,1000
9478,55:24.9,IMU,49125342,0,0.000609899,0.000708926,0.000675982,-0.002332619,-0.000320161,-9.817361,0,0,27.91224,1,1,1000,1000
9578,55:25.0,IMU,49165326,0,0.000606369,0.00063159,0.000786214,-0.001862282,-0.002008852,-9.817459,0,0,27.91452,1,1,1000,1000
9633,55:25.0,IMU,49205310,0,0.000669592,0.00071545,0.000592071,-0.001163151,-0.001824956,-9.816104,0,0,27.9168,1,1,1000,1000
9731,55:25.0,IMU,49245294,0,0.000648644,0.000692862,0.000708224,-0.001234061,-0.000403684,-9.817618,0,0,27.91908,1,1,1000,1000
9783,55:25.1,IMU,49285278,0,0.000723703,0.000728246,0.000680698,-0.001556519,-0.001395729,-9.816756,0,0,27.92135,1,1,1000,1000
9836,55:25.1,IMU,49325262,0,0.000628502,0.000717864,0.000658349,-0.001267048,-0.001131519,-9.816707,0,0,27.92363,1,1,1000,1000
9936,55:25.2,IMU,49365246,0,0.000616599,0.000649102,0.000650442,-0.000882045,-0.001648691,-9.817629,0,0,27.92591,1,1,1000,1000
9992,55:25.2,IMU,49405230,0,0.000712466,0.000680988,0.000677075,-0.000830566,-0.000427315,-9.817393,0,0,27.92813,1,1,1000,1000
10093,55:25.2,IMU,49445214,0,0.000672453,0.000679255,0.000666126,-0.001572638,-0.001704318,-9.81838,0,0,27.9304,1,1,1000,1000
10148,55:25.3,IMU,49485198,0,0.000725475,0.000710447,0.000710323,-0.000901901,-0.001748905,-9.818645,0,0,27.93268,1,1,1000,1000
10201,55:25.3,IMU,49525182,0,0.000590686,0.000730089,0.00066819,-0.001568289,-0.001270923,-9.818338,0,0,27.93495,1,1,1000,1000
10303,55:25.4,IMU,49565166,0,0.000741858,0.000736188,0.000732404,-0.000786258,-0.001890448,-9.817808,0,0,27.93723,1,1,1000,1000
10358,55:25.4,IMU,49605150,0,0.000635088,0.000620194,0.000688024,-0.001656595,-0.000383998,-9.817318,0,0,27.9395,1,1,1000,1000
10457,55:25.4,IMU,49645134,0,0.000665072,0.000672623,0.000710255,-0.000490768,-0.001212024,-9.818595,0,0,27.94178,1,1,1000,1000
10508,55:25.5,IMU,49685118,0,0.000644036,0.000664732,0.000652532,-0.001052547,-0.000601937,-9.818695,0,0,27.94405,1,1,1000,1000
10561,55:25.5,IMU,49725102,0,0.000637123,0.000705295,0.000635655,-0.00105714,-0.001505509,-9.817656,0,0,27.94633,1,1,1000,1000
10661,55:25.6,IMU,49765086,0,0.000685217,0.000648646,0.000670638,-0.000992756,-0.001178461,-9.818712,0,0,27.9486,1,1,1000,1000
10716,55:25.6,IMU,49805070,0,0.000675059,0.000707839,0.000687151,-0.00169377,-0.00129479,-9.816618,0,0,27.95087,1,1,1000,1000
10814,55:25.6,IMU,49845054,0,0.000631225,0.000720775,0.000683019,-0.000390423,-0.000909688,-9.818329,0,0,27.9532,1,1,1000,1000
10866,55:25.7,IMU,49885038,0,0.000746071,0.000734801,0.000698764,-0.001069784,-0.001373921,-9.817561,0,0,27.95548,1,1,1000,1000
10920,55:25.7,IMU,49925022,0,0.000697433,0.000690079,0.000679059,-0.000813282,-0.000877377,-9.816969,0,0,27.95775,1,1,1000,1000
11021,55:25.8,IMU,49965006,0,0.000599896,0.000707948,0.000722008,-0.000784555,-0.001068815,-9.818053,0,0,27.96002,1,1,1000,1000
11075,55:25.8,IMU,50004990,0,0.000635154,0.00070817,0.000647922,-0.000471013,-0.001524188,-9.817455,0,0,27.96224,1,1,1000,1000
11176,55:25.8,IMU,50044974,0,0.000682674,0.000749582,0.000687819,2.129504e-05,0.000320065,-9.817792,0,0,27.96451,1,1,1000,1000
11228,55:25.9,IMU,50084958,0,0.000683232,0.000630199,0.000713721,-0.001174118,-0.001684597,-9.817943,0,0,27.96678,1,1,1000,1000
11280,55:25.9,IMU,50124942,0,0.000612633,0.000658811,0.000650136,-0.001438624,-0.0010974,-9.817301,0,0,27.96905,1,1,1000,1000
11380,55:26.0,IMU,50164926,0,0.000711352,0.000746018,0.000624441,-0.000929966,-0.000348745,-9.817225,0,0,27.97132,1,1,1000,1000
11435,55:26.0,IMU,50204910,0,0.000605285,0.000774882,0.000719861,-0.002293896,-0.001218676,-9.817411,0,0,27.97359,1,1,1000,1000
11533,55:26.0,IMU,50244894,0,0.000634837,0.000686883,0.000663074,-0.001520801,-0.001102109,-9.818273,0,0,27.97586,1,1,1000,1000
11585,55:26.1,IMU,50284878,0,0.000612365,0.000651949,0.000562123,-0.001305712,-0.000583013,-9.816538,0,0,27.97813,1,1,1000,1000
11638,55:26.1,IMU,50324862,0,0.000659776,0.000620626,0.000746213,-0.000676489,-0.001005909,-9.816881,0,0,27.9804,1,1,1000,1000
11738,55:26.2,IMU,50364846,0,0.000711247,0.000690661,0.00071047,-0.001412193,-0.000647613,-9.817173,0,0,27.98267,1,1,1000,1000
11794,55:26.2,IMU,50404830,0,0.000686617,0.000689107,0.000796235,-0.000139432,-0.001322479,-9.817775,0,0,27.98494,1,1,1000,1000
11895,55:26.2,IMU,50444814,0,0.000691124,0.000752766,0.000621031,-0.001359215,-0.000725547,-9.817581,0,0,27.98721,1,1,1000,1000
11949,55:26.3,IMU,50484798,0,0.000638803,0.000681954,0.000721983,-0.000908555,-0.000507247,-9.817208,0,0,27.98948,1,1,1000,1000
12002,55:26.3,IMU,50524782,0,0.000680636,0.000709169,0.000777459,-0.000675622,-0.001147235,-9.817385,0,0,27.99174,1,1,1000,1000
12105,55:26.4,IMU,50564766,0,0.000729662,0.000672022,0.000684913,-0.001076463,-0.001042099,-9.818268,0,0,27.99401,1,1,1000,1000
12159,55:26.4,IMU,50604750,0,0.000617362,0.000699443,0.000636501,-0.0016738,-0.001836899,-9.8176,0,0,27.99628,1,1,1000,1000
12258,55:26.4,IMU,50644734,0,0.000669099,0.00071895,0.000687734,-0.000653307,-0.000302257,-9.817378,0,0,27.99854,1,1,1000,1000
12312,55:26.5,IMU,50684718,0,0.000752976,0.000736552,0.00062543,-0.001225224,-0.00200394,-9.817262,0,0,28.00081,1,1,1000,1000
12364,55:26.5,IMU,50724702,0,0.000720268,0.000746085,0.000715446,-0.000103091,-0.001297073,-9.817425,0,0,28.00308,1,1,1000,1000
12464,55:26.6,IMU,50764686,0,0.000661544,0.000789049,0.000733647,-0.001855497,-0.000530615,-9.817837,0,0,28.00534,1,1,1000,1000
12519,55:26.6,IMU,50804670,0,0.000716048,0.000721687,0.000616705,-0.00140101,-0.001240382,-9.817432,0,0,28.00761,1,1,1000,1000
12619,55:26.6,IMU,50844654,0,0.000781851,0.000764332,0.000698268,-0.001041662,-0.00144334,-9.817497,0,0,28.00988,1,1,1000,1000
12671,55:26.7,IMU,50884638,0,0.000659263,0.000695965,0.00074725,-0.000632708,-0.000692347,-9.817605,0,0,28.01214,1,1,1000,1000
12725,55:26.7,IMU,50924622,0,0.00068725,0.000767464,0.000690376,-0.001203522,-0.000374269,-9.818645,0,0,28.01441,1,1,1000,1000
12825,55:26.8,IMU,50964606,0,0.000648164,0.000747087,0.000748227,-0.002503469,-0.000386084,-9.817146,0,0,28.01667,1,1,1000,1000
12880,55:26.8,IMU,51004590,0,0.000695972,0.000745782,0.000762653,-0.000449658,-0.000921259,-9.818011,0,0,28.01893,1,1,1000,1000
12981,55:26.8,IMU,51045407,0,0.000693868,0.000605677,0.000669166,-0.000504072,-0.00096598,-9.818177,0,0,28.02126,1,1,1000,1000
13033,55:26.9,IMU,51085391,0,0.000682605,0.000710115,0.000669318,-0.001111187,-0.000764136,-9.817753,0,0,28.02352,1,1,1000,1000
13085,55:26.9,IMU,51125375,0,0.000690901,0.000705255,0.000782371,-0.00141334,-0.001066886,-9.81813,0,0,28.02578,1,1,1000,1000
13185,55:27.0,IMU,51165359,0,0.000650047,0.000695373,0.000709947,-0.001853118,0.000191496,-9.817868,0,0,28.02805,1,1,1000,1000
13240,55:27.0,IMU,51205343,0,0.000715641,0.000720501,0.000702297,0.000278073,-0.002045423,-9.817709,0,0,28.03031,1,1,1000,1000
13338,55:27.0,IMU,51245327,0,0.000718046,0.000723102,0.000723092,-0.001362036,-0.000776345,-9.8173,0,0,28.03257,1,1,1000,1000
13390,55:27.1,IMU,51285311,0,0.00068651,0.000697761,0.000719398,-0.001387189,-0.001325722,-9.817201,0,0,28.03483,1,1,1000,1000
13443,55:27.1,IMU,51325295,0,0.000622313,0.000718848,0.00071495,9.8275e-05,0.000342768,-9.81599,0,0,28.03709,1,1,1000,1000
13543,55:27.2,IMU,51365279,0,0.000690201,0.000777592,0.000704878,-0.000817902,-0.001285501,-9.817222,0,0,28.03936,1,1,1000,1000
13598,55:27.2,IMU,51405263,0,0.000672449,0.00060707,0.000674167,-0.001048054,-0.000207168,-9.818289,0,0,28.04162,1,1,1000,1000
13700,55:27.2,IMU,51445247,0,0.000734609,0.000741295,0.00075197,-0.000203492,0.00011221,-9.818071,0,0,28.04388,1,1,1000,1000
13753,55:27.3,IMU,51485231,0,0.000668244,0.000733227,0.000701369,-0.00170548,-0.001619071,-9.817868,0,0,28.04608,1,1,1000,1000
13807,55:27.3,IMU,51525215,0,0.000709698,0.000663442,0.000708152,-0.001453405,-0.001469189,-9.816886,0,0,28.04834,1,1,1000,1000
13910,55:27.4,IMU,51565199,0,0.000657439,0.000805076,0.00066532,-0.000383656,-0.00177778,-9.816936,0,0,28.0506,1,1,1000,1000
13964,55:27.4,IMU,51605183,0,0.000738643,0.000689133,0.000701671,-0.000818809,-0.001641208,-9.818578,0,0,28.05286,1,1,1000,1000
14063,55:27.4,IMU,51645167,0,0.000763517,0.000737264,0.000692828,-0.000487884,-0.001081481,-9.818146,0,0,28.05512,1,1,1000,1000
14115,55:27.5,IMU,51685151,0,0.00065775,0.00070814,0.000705793,-0.000349826,-0.000339463,-9.81655,0,0,28.05738,1,1,1000,1000
14167,55:27.5,IMU,51725135,0,0.000748766,0.000617365,0.00079161,-0.001457195,3.590761e-05,-9.816805,0,0,28.05964,1,1,1000,1000
14267,55:27.6,IMU,51765119,0,0.000694466,0.000724727,0.000724602,-0.000966145,-0.000868228,-9.818406,0,0,28.0619,1,1,1000,1000
14322,55:27.6,IMU,51805103,0,0.000714272,0.000827697,0.000673996,-0.001075558,-0.001590489,-9.817439,0,0,28.06416,1,1,1000,1000
14420,55:27.6,IMU,51845087,0,0.000709022,0.00078634,0.000749279,-0.001126225,-0.000432253,-9.817138,0,0,28.06641,1,1,1000,1000
14472,55:27.7,IMU,51885071,0,0.000715909,0.000670904,0.00066762,-0.000973379,-0.001207053,-9.816734,0,0,28.06867,1,1,1000,1000
14526,55:27.7,IMU,51925055,0,0.00073353,0.000655983,0.000703673,-0.001696456,-0.000988074,-9.817074,0,0,28.07099,1,1,1000,1000
14625,55:27.8,IMU,51965039,0,0.000747415,0.000747109,0.000785816,-0.000789175,9.665291e-06,-9.81732,0,0,28.07324,1,1,1000,1000
14680,55:27.8,IMU,52005023,0,0.000719634,0.000789122,0.000734271,-0.000494117,2.735375e-06,-9.817202,0,0,28.0755,1,1,1000,1000
14782,55:27.8,IMU,52045007,0,0.00073075,0.000694136,0.000750455,0.000593345,-0.000348797,-9.817301,0,0,28.07776,1,1,1000,1000
14835,55:27.9,IMU,52084991,0,0.000720828,0.000804982,0.000779464,-0.000520596,-4.46e-05,-9.815475,0,0,28.07996,1,1,1000,1000
14888,55:27.9,IMU,52124975,0,0.000708374,0.000760497,0.000752911,-0.001229228,-0.000356475,-9.818312,0,0,28.08221,1,1,1000,1000
14988,55:28.0,IMU,52164959,0,0.000740218,0.000735208,0.000713222,-0.000375807,-0.001079749,-9.816753,0,0,28.08447,1,1,1000,1000
15042,55:28.0,IMU,52204943,0,0.000696923,0.000709574,0.000762469,-0.001939023,-0.000660592,-9.817711,0,0,28.08672,1,1,1000,1000
15141,55:28.0,IMU,52244927,0,0.000697514,0.00075281,0.000722771,-0.001109496,-0.001163801,-9.817071,0,0,28.08898,1,1,1000,1000
15193,55:28.1,IMU,52284911,0,0.000674704,0.000740044,0.000725261,0.01360296,0.000194142,-9.817259,0,0,28.09123,1,1,1000,1000
15245,55:28.1,IMU,52324895,0,0.000706209,0.000755852,0.000717955,0.01507533,-0.00015394,-9.817235,0,0,28.09349,1,1,1000,1000
15346,55:28.2,IMU,52364879,0,0.00075401,0.00067312,0.000667121,0.01296798,0.00074404,-9.817297,0,0,28.09574,1,1,1000,1000
15401,55:28.2,IMU,52404863,0,0.000675687,0.000791284,0.000807544,0.007399566,-2.26e-05,-9.817468,0,0,28.09799,1,1,1000,1000
15503,55:28.2,IMU,52444847,0,0.000715804,0.000716781,0.000715794,0.001837983,0.00052963,-9.817469,0,0,28.10025,1,1,1000,1000
15557,55:28.3,IMU,52484831,0,0.000707842,0.000748214,0.000725728,-0.002124226,-0.001641479,-9.817215,0,0,28.1025,1,1,1000,1000
15611,55:28.3,IMU,52524815,0,0.000711806,0.000710521,0.000710802,-0.00425658,-0.000826634,-9.818037,0,0,28.10475,1,1,1000,1000
15714,55:28.4,IMU,52564799,0,0.000727491,0.000764508,0.000715408,-0.005157312,-0.002421706,-9.818068,0,0,28.10701,1,1,1000,1000
15768,55:28.4,IMU,52604783,0,0.000704112,0.0007617,0.000759103,-0.0064021,-0.001734727,-9.817361,0,0,28.10926,1,1,1000,1000
15867,55:28.4,IMU,52644767,0,0.000751479,0.000739376,0.000656177,-0.007817546,-0.002069481,-9.818027,0,0,28.11151,1,1,1000,1000
15919,55:28.5,IMU,52684751,0,0.000713392,0.00075362,0.000717858,-0.00600769,-0.001102741,-9.817068,0,0,28.11376,1,1,1000,1000
15971,55:28.5,IMU,52724735,0,0.000714861,0.000755507,0.000683303,-0.004927084,-0.000443199,-9.818229,0,0,28.11601,1,1,1000,1000
16071,55:28.6,IMU,52764719,0,0.000788954,0.000724467,0.000770779,-0.003456322,-0.001785604,-9.817608,0,0,28.11827,1,1,1000,1000
16126,55:28.6,IMU,52804703,0,0.000759911,0.000743865,0.000759002,-0.002655432,-0.002466841,-9.817461,0,0,28.12052,1,1,1000,1000
16224,55:28.6,IMU,52844687,0,0.000696898,0.000711358,0.000690602,-0.001708996,-0.001991496,-9.81723,0,0,28.12277,1,1,1000,1000
16276,55:28.7,IMU,52884671,0,0.000732041,0.000764492,0.000765027,-0.00202358,-0.000622398,-9.817224,0,0,28.12502,1,1,1000,1000
16329,55:28.7,IMU,52924655,0,0.000776972,0.000729245,0.000707816,-0.001138441,-0.001351565,-9.81699,0,0,28.12727,1,1,1000,1000
16429,55:28.8,IMU,52964639,0,0.000765967,0.000735619,0.000785888,8.708925e-05,-0.000837817,-9.818558,0,0,28.12952,1,1,1000,1000
16484,55:28.8,IMU,53004623,0,0.000738297,0.000712085,0.000713692,0.000687201,-0.001479595,-10.17277,0,0,28.13177,1,1,1000,1000
16591,55:28.8,IMU,53044607,0,0.000738265,0.000762319,0.000675369,0.000261385,-0.000743866,-10.50646,0,0,28.13401,1,1,1000,1000
16642,55:28.9,IMU,53084591,0,0.000687705,0.000770497,0.000791922,-0.002591878,-0.001186619,-10.36682,0,0,28.13626,1,1,1000,1000
16695,55:28.9,IMU,53125408,0,0.000743705,0.000750142,0.00077309,-0.003082785,-0.000115462,-10.37132,0,0,28.13857,1,1,1000,1000
16795,55:29.0,IMU,53165392,0,0.000718538,0.000744677,0.00075677,-0.003383141,-0.001593826,-10.40312,0,0,28.14082,1,1,1000,1000
16849,55:29.0,IMU,53205376,0,0.000738233,0.00076688,0.000768488,-0.002073925,-0.000508027,-10.38045,0,0,28.14306,1,1,1000,1000
16948,55:29.0,IMU,53245360,0,0.00071043,0.00074098,0.000752439,-0.001608873,0.000267939,-10.35265,0,0,28.14531,1,1,1000,1000
17000,55:29.1,IMU,53285344,0,0.000686371,0.000775306,0.000702453,-0.001533035,-0.001195307,-10.34468,0,0,28.14756,1,1,1000,1000
17053,55:29.1,IMU,53325328,0,0.000692249,0.000759619,0.00082171,0.00023268,-0.000932469,-10.34383,0,0,28.14981,1,1,1000,1000
17153,55:29.2,IMU,53365312,0,0.000723347,0.000740073,0.000698415,0.00036697,-0.000477404,-10.34655,0,0,28.15205,1,1,1000,1000
17208,55:29.2,IMU,53405296,0,0.000729227,0.000757293,0.000730394,0.001832051,-0.00123598,-10.3591,0,0,28.1543,1,1,1000,1000
17309,55:29.2,IMU,53445280,0,0.000721425,0.000759316,0.00073847,0.000655454,-7.32e-05,-10.3756,0,0,28.15654,1,1,1000,1000
17363,55:29.3,IMU,53485264,0,0.000718129,0.000764019,0.000730191,0.000803146,-0.000228411,-10.3905,0,0,28.15879,1,1,1000,1000
17416,55:29.3,IMU,53525248,0,0.000695674,0.000765141,0.000708489,0.000723009,-0.000617357,-10.40881,0,0,28.16103,1,1,1000,1000
17519,55:29.4,IMU,53565232,0,0.000743535,0.00076327,0.000748177,0.000479599,-0.00041469,-10.42267,0,0,28.16322,1,1,1000,1000
17574,55:29.4,IMU,53605216,0,0.000744753,0.000690987,0.00077439,0.00037342,-0.001080354,-10.4406,0,0,28.16547,1,1,1000,1000
17673,55:29.4,IMU,53645200,0,-0.009308835,-0.008080891,0.000806238,0.00759862,-0.000175229,-11.01471,0,0,28.16771,1,1,1000,1000
17726,55:29.5,IMU,53685184,0,-0.02820028,-0.02551575,0.00153438,0.05779946,0.006833134,-14.53833,0,0,28.16996,1,1,1000,1000
17778,55:29.5,IMU,53725168,0,-0.03487183,-0.02527346,0.002071662,0.09041914,0.0183263,-15.10083,0,0,28.1722,1,1,1000,1000
17878,55:29.6,IMU,53765152,0,-0.0329954,-0.01680615,0.002532911,0.1114892,0.03085282,-14.29236,0,0,28.17444,1,1,1000,1000
17934,55:29.6,IMU,53805136,0,-0.02894043,-0.006122462,0.002729144,0.12801,0.03968619,-13.12634,0,0,28.17669,1,1,1000,1000
18032,55:29.6,IMU,53845120,0,-0.02193367,0.00819591,0.002939192,0.1428041,0.04350879,-11.90824,0,0,28.17893,1,1,1000,1000
18084,55:29.7,IMU,53885104,0,-0.01619612,0.02005225,0.002987467,0.1558553,0.0407898,-10.84631,0,0,28.18117,1,1,1000,1000
18137,55:29.7,IMU,53925088,0,-0.009104309,0.02843444,0.002963915,0.1648263,0.03613699,-10.02569,0,0,28.18341,1,1,1000,1000
18238,55:29.8,IMU,53965072,0,-0.006972787,0.0353088,0.003061263,0.1701043,0.03117225,-9.492188,0,0,28.18566,1,1,1000,1000
18292,55:29.8,IMU,54005056,0,-0.001565973,0.03942179,0.002983051,0.1727166,0.02216285,-9.221649,0,0,28.18795,1,1,1000,1000
18394,55:29.8,IMU,54045040,0,0.004718216,0.04387502,0.002951536,0.1720399,0.01940489,-9.182922,0,0,28.1902,1,1,1000,1000
18447,55:29.9,IMU,54085024,0,0.008449929,0.0455456,0.002852999,0.1689456,0.01881673,-9.306627,0,0,28.19244,1,1,1000,1000
18499,55:29.9,IMU,54125008,0,0.01092648,0.04472627,0.002710816,0.16924,0.01791061,-9.527632,0,0,28.19468,1,1,1000,1000
18599,55:30.0,IMU,54164992,0,0.01306693,0.04428637,0.002598478,0.1693156,0.01923241,-9.80296,0,0,28.19686,1,1,1000,1000
18654,55:30.0,IMU,54204976,0,0.01338913,0.04109783,0.002430132,0.1707094,0.02241053,-10.07173,0,0,28.1991,1,1,1000,1000
18753,55:30.0,IMU,54244960,0,0.01414474,0.04060553,0.002294655,0.1767142,0.02299751,-10.31186,0,0,28.20134,1,1,1000,1000
18804,55:30.1,IMU,54284944,0,0.01412571,0.04129521,0.002059298,0.1823698,0.02535205,-10.51176,0,0,28.20358,1,1,1000,1000
18857,55:30.1,IMU,54324928,0,0.01515577,0.03953528,0.002152366,0.1872112,0.02854756,-10.64568,0,0,28.20582,1,1,1000,1000
18957,55:30.2,IMU,54364912,0,0.01149383,0.0339324,0.002049549,0.195765,0.02927042,-10.74566,0,0,28.20806,1,1,1000,1000
19012,55:30.2,IMU,54404896,0,0.01246032,0.03270637,0.001952282,0.2031901,0.03090038,-10.80293,0,0,28.2103,1,1,1000,1000
19114,55:30.2,IMU,54444880,0,0.008232989,0.03542191,0.001848015,0.2098527,0.03316079,-10.81834,0,0,28.21254,1,1,1000,1000
19168,55:30.3,IMU,54484864,0,0.007664248,0.03196233,0.001685549,0.2151069,0.03141464,-10.8385,0,0,28.21478,1,1,1000,1000
19220,55:30.3,IMU,54524848,0,0.008976223,0.03192176,0.001685394,0.2234634,0.03281485,-10.82975,0,0,28.21701,1,1,1000,1000
19323,55:30.4,IMU,54564832,0,0.008166598,0.02886696,0.001608382,0.2291761,0.03457403,-10.80364,0,0,28.21925,1,1,1000,1000
19379,55:30.4,IMU,54604816,0,0.008459485,0.03113552,0.001512691,0.2337749,0.03414223,-10.80048,0,0,28.22149,1,1,1000,1000
19477,55:30.4,IMU,54644800,0,0.007613287,0.0290286,0.001544268,0.2386681,0.034603,-10.79353,0,0,28.22373,1,1,1000,1000
19529,55:30.5,IMU,54684784,0,0.008881302,0.03022373,0.001602991,0.2447594,0.03664328,-10.78805,0,0,28.22596,1,1,1000,1000
19584,55:30.5,IMU,54724768,0,0.007016117,0.02697822,0.001590543,0.2500687,0.03676891,-10.79486,0,0,28.2282,1,1,1000,1000
19683,55:30.6,IMU,54764752,0,0.004552219,0.02412088,0.001509576,0.2544161,0.03579533,-10.80666,0,0,28.23044,1,1,1000,1000
19738,55:30.6,IMU,54804736,0,0.004931454,0.02532578,0.00155297,0.2595928,0.03726306,-10.81556,0,0,28.23267,1,1,1000,1000
19837,55:30.6,IMU,54844720,0,0.002198455,0.02300878,0.00152817,0.266438,0.03720993,-10.82801,0,0,28.23491,1,1,1000,1000
19888,55:30.7,IMU,54884704,0,0.005808056,0.02448881,0.001560106,0.2723009,0.03812446,-10.84154,0,0,28.23714,1,1,1000,1000
19941,55:30.7,IMU,54924688,0,0.00275929,0.02266787,0.001526999,0.2788967,0.03871461,-10.84384,0,0,28.23938,1,1,1000,1000
20043,55:30.8,IMU,54964672,0,0.001082055,0.01887723,0.001493034,0.2859016,0.03914407,-10.85206,0,0,28.24161,1,1,1000,1000
20098,55:30.8,IMU,55004656,0,-0.000889365,0.02000981,0.001634962,0.2921979,0.0390624,-10.86909,0,0,28.24384,1,1,1000,1000
20198,55:30.8,IMU,55044640,0,0.000410918,0.01807795,0.001550223,0.2988013,0.04056917,-10.86081,0,0,28.24608,1,1,1000,1000
20251,55:30.9,IMU,55084624,0,0.002323386,0.01920817,0.001747407,0.3068414,0.0397554,-10.87433,0,0,28.24831,1,1,1000,1000
20304,55:30.9,IMU,55124608,0,0.00037109,0.01721234,0.001631678,0.312897,0.03888582,-10.86257,0,0,28.25055,1,1,1000,1000
20404,55:31.0,IMU,55164592,0,-0.001738812,0.01453671,0.00171301,0.3192995,0.039924,-10.87221,0,0,28.25278,1,1,1000,1000
20458,55:31.0,IMU,55205409,0,-0.002718781,0.01317764,0.001632296,0.3266586,0.04071241,-10.85941,0,0,28.25507,1,1,1000,1000
20557,55:31.0,IMU,55245393,0,-0.003980848,0.01412663,0.001708615,0.3336877,0.04065662,-10.8676,0,0,28.2573,1,1,1000,1000
20609,55:31.1,IMU,55285377,0,0.000114932,0.01302484,0.001759737,0.3396423,0.0408257,-10.85362,0,0,28.25953,1,1,1000,1000
20662,55:31.1,IMU,55325361,0,-0.002372031,0.01244905,0.001840368,0.3486423,0.04011188,-10.85729,0,0,28.26176,1,1,1000,1000
20762,55:31.2,IMU,55365345,0,-0.001908057,0.01130242,0.001717501,0.3547674,0.04123011,-10.83412,0,0,28.264,1,1,1000,1000
20821,55:31.2,IMU,55405329,0,-0.001851529,0.01142988,0.00179446,0.3612776,0.04182214,-10.74331,0,0,28.26623,1,1,1000,1000
20923,55:31.2,IMU,55445313,0,-0.009885238,0.01444059,0.001654999,0.3671459,0.04202582,-10.63366,0,0,28.26846,1,1,1000,1000
20977,55:31.3,IMU,55485297,0,-0.007720901,0.01683232,0.00163829,0.3717764,0.04072667,-10.53292,0,0,28.27069,1,1,1000,1000
21030,55:31.3,IMU,55525281,0,-0.005580941,0.01724467,0.001642708,0.3767255,0.04190076,-10.43373,0,0,28.27292,1,1,1000,1000
21132,55:31.4,IMU,55565265,0,-0.004872488,0.01658516,0.001544986,0.3820762,0.04140193,-10.34618,0,0,28.27515,1,1,1000,1000
21189,55:31.4,IMU,55605249,0,-0.005237846,0.01549426,0.001454066,0.3883725,0.042835,-10.26371,0,0,28.27738,1,1,1000,1000
21288,55:31.4,IMU,55645233,0,-0.004771736,0.0153079,0.001420237,0.3941303,0.04224632,-10.1927,0,0,28.27955,1,1,1000,1000
21339,55:31.5,IMU,55685217,0,-0.002671778,0.01708763,0.001406768,0.3999455,0.04251087,-10.12636,0,0,28.28178,1,1,1000,1000
21392,55:31.5,IMU,55725201,0,-0.001876292,0.01741826,0.001391596,0.4052117,0.0431523,-10.06315,0,0,28.28401,1,1,1000,1000
21492,55:31.6,IMU,55765185,0,-0.003811751,0.01908346,0.001458271,0.4106431,0.04257863,-10.01369,0,0,28.28624,1,1,1000,1000
21546,55:31.6,IMU,55805169,0,-0.00154051,0.01674755,0.001408876,0.4157301,0.04219925,-9.95429,0,0,28.28847,1,1,1000,1000
21647,55:31.6,IMU,55845153,0,-0.000573566,0.01555832,0.001448369,0.4219729,0.04347019,-9.871189,0,0,28.2907,1,1,1000,1000
21699,55:31.7,IMU,55885137,0,0.000363327,0.0177024,0.001450542,0.426501,0.04333608,-9.777109,0,0,28.29292,1,1,1000,1000
21751,55:31.7,IMU,55925121,0,0.000847009,0.01795667,0.001446687,0.4313977,0.04521818,-9.694796,0,0,28.29515,1,1,1000,1000
21851,55:31.8,IMU,55965105,0,0.000802169,0.01842225,0.001551825,0.4350251,0.0457643,-9.615404,0,0,28.29738,1,1,1000,1000
21907,55:31.8,IMU,56005089,0,0.000180323,0.01752326,0.001602839,0.4412114,0.04513287,-9.545648,0,0,28.29961,1,1,1000,1000
22007,55:31.8,IMU,56045073,0,0.000451703,0.01801744,0.001615909,0.4458449,0.04610845,-9.484123,0,0,28.30183,1,1,1000,1000
22059,55:31.9,IMU,56085057,0,0.002363659,0.01964953,0.001673508,0.450704,0.04601654,-9.427682,0,0,28.30412,1,1,1000,1000
22113,55:31.9,IMU,56125041,0,0.004106943,0.01928852,0.001700344,0.4552712,0.04726524,-9.380394,0,0,28.30634,1,1,1000,1000
22213,55:32.0,IMU,56165025,0,0.004142942,0.01870405,0.001712753,0.4596879,0.04756949,-9.334665,0,0,28.30857,1,1,1000,1000
22267,55:32.0,IMU,56205009,0,0.000100846,0.01989884,0.001773452,0.465394,0.04764719,-9.297422,0,0,28.31079,1,1,1000,1000
22366,55:32.0,IMU,56244993,0,0.002870917,0.01923007,0.001913992,0.4698921,0.04778984,-9.265488,0,0,28.31296,1,1,1000,1000
22417,55:32.1,IMU,56284977,0,0.003479596,0.02058122,0.001820734,0.4747347,0.04662488,-9.235984,0,0,28.31519,1,1,1000,1000
22471,55:32.1,IMU,56324961,0,0.004199253,0.02110402,0.001862487,0.4799029,0.04878694,-9.21843,0,0,28.31741,1,1,1000,1000
22571,55:32.2,IMU,56364945,0,0.003657493,0.0191549,0.001912462,0.4856855,0.04735755,-9.200239,0,0,28.31964,1,1,1000,1000
22627,55:32.2,IMU,56404929,0,0.000900027,0.01752152,0.001885018,0.4902022,0.04763713,-9.185475,0,0,28.32186,1,1,1000,1000
22727,55:32.2,IMU,56444913,0,1.6152e-05,0.01895823,0.002033743,0.4947546,0.04840574,-9.166387,0,0,28.32408,1,1,1000,1000
22782,55:32.3,IMU,56484897,0,0.003799141,0.02130269,0.00205895,0.5000533,0.04821665,-9.151581,0,0,28.32631,1,1,1000,1000
22835,55:32.3,IMU,56524881,0,0.003497588,0.01947276,0.001949623,0.5049731,0.04869607,-9.158281,0,0,28.32853,1,1,1000,1000
22937,55:32.4,IMU,56564865,0,0.001515727,0.01759268,0.001901385,0.5097947,0.04861648,-9.13759,0,0,28.33075,1,1,1000,1000
22992,55:32.4,IMU,56604849,0,0.001375257,0.01593468,0.001848126,0.5150604,0.04863036,-9.147318,0,0,28.33297,1,1,1000,1000
23092,55:32.4,IMU,56644833,0,0.000791322,0.01608523,0.001747007,0.520367,0.04889756,-9.148917,0,0,28.3352,1,1,1000,1000
23144,55:32.5,IMU,56684817,0,0.000412297,0.01654635,0.001502523,0.5264791,0.04891948,-9.141562,0,0,28.33742,1,1,1000,1000
23196,55:32.5,IMU,56724801,0,0.000454963,0.01682445,0.001454819,0.5296916,0.04977274,-9.148304,0,0,28.33964,1,1,1000,1000
23296,55:32.6,IMU,56764785,0,0.000452601,0.01516784,0.001390087,0.5351886,0.04887455,-9.15943,0,0,28.34186,1,1,1000,1000
23351,55:32.6,IMU,56804769,0,0.000175156,0.01533507,0.001191382,0.5394717,0.0502243,-9.154043,0,0,28.34408,1,1,1000,1000
23449,55:32.6,IMU,56844753,0,-0.002134448,0.01581891,0.000848689,0.5458841,0.05012728,-9.153606,0,0,28.3463,1,1,1000,1000
23502,55:32.7,IMU,56884737,0,-0.001808951,0.01716561,0.000536235,0.5499952,0.04971091,-9.164704,0,0,28.34852,1,1,1000,1000
23554,55:32.7,IMU,56924721,0,-0.001434224,0.01662567,0.000296969,0.5543905,0.05059499,-9.174534,0,0,28.35074,1,1,1000,1000
23654,55:32.8,IMU,56964705,0,-0.001322645,0.01423578,0.000338194,0.5598893,0.0510238,-9.179685,0,0,28.35296,1,1,1000,1000
23709,55:32.8,IMU,57004689,0,-0.001135641,0.01299822,0.000388839,0.5644272,0.05079988,-9.190617,0,0,28.35518,1,1,1000,1000
23810,55:32.8,IMU,57044673,0,-0.000871659,0.01182091,0.000380179,0.5692155,0.05100805,-9.200817,0,0,28.3574,1,1,1000,1000
23862,55:32.9,IMU,57084657,0,-0.000728929,0.01073319,0.000420191,0.5735304,0.05064856,-9.209982,0,0,28.35962,1,1,1000,1000
23915,55:32.9,IMU,57124641,0,-0.00302891,0.01350937,0.000379359,0.5789785,0.05022624,-9.212036,0,0,28.36184,1,1,1000,1000
24015,55:33.0,IMU,57164625,0,-0.004704763,0.01351081,9.697076e-05,0.5830023,0.05108013,-9.217179,0,0,28.36406,1,1,1000,1000
24070,55:33.0,IMU,57204609,0,-0.005215358,0.01367953,-0.000215543,0.589218,0.05072584,-9.226393,0,0,28.36628,1,1,1000,1000
24169,55:33.0,IMU,57244593,0,-0.00485415,0.01500598,-0.000528327,0.5931872,0.05145607,-9.225861,0,0,28.36849,1,1,1000,1000
24220,55:33.1,IMU,57284577,0,-0.002511346,0.01594003,-0.000579216,0.5965054,0.0507668,-9.230341,0,0,28.37071,1,1,1000,1000
24274,55:33.1,IMU,57325394,0,-0.002277224,0.01604043,-0.000735447,0.6014267,0.05134621,-9.23913,0,0,28.37298,1,1,1000,1000
24374,55:33.2,IMU,57365378,0,-0.00195198,0.01458314,-0.00092615,0.6047783,0.05140983,-9.245945,0,0,28.3752,1,1,1000,1000
24429,55:33.2,IMU,57405362,0,-0.001682864,0.01055079,-0.000865068,0.6106305,0.0515333,-9.248764,0,0,28.37742,1,1,1000,1000
24530,55:33.2,IMU,57445346,0,-0.001519414,0.009735002,-0.000692584,0.6147445,0.05130125,-9.258535,0,0,28.37963,1,1,1000,1000
24585,55:33.3,IMU,57485330,0,-0.001258334,0.008879151,-0.000591336,0.6183838,0.05172516,-9.266825,0,0,28.38185,1,1,1000,1000
24638,55:33.3,IMU,57525314,0,-0.003688402,0.008991502,-0.000585198,0.6231519,0.05269402,-9.2703,0,0,28.38406,1,1,1000,1000
24740,55:33.4,IMU,57565298,0,-0.007705207,0.01125321,-0.000570947,0.6274932,0.05046397,-9.272621,0,0,28.38628,1,1,1000,1000
24795,55:33.4,IMU,57605282,0,-0.008632999,0.01188677,-0.000523415,0.6313204,0.05240439,-9.274273,0,0,28.38849,1,1,1000,1000
24895,55:33.4,IMU,57645266,0,-0.009248514,0.01170789,-0.000512082,0.6340171,0.05291332,-9.2754,0,0,28.39071,1,1,1000,1000
24946,55:33.5,IMU,57685250,0,-0.005450214,0.0105859,-0.000447958,0.6395597,0.05203628,-9.277812,0,0,28.39292,1,1,1000,1000
24999,55:33.5,IMU,57725234,0,-0.005003591,0.01178757,-0.000467175,0.641632,0.05244017,-9.279438,0,0,28.39514,1,1,1000,1000
25099,55:33.6,IMU,57765218,0,-0.004454706,0.01073086,-0.00038231,0.6469119,0.05486724,-9.287539,0,0,28.39729,1,1,1000,1000
25153,55:33.6,IMU,57805202,0,-0.004326785,0.009776437,-0.000227441,0.6500401,0.05403372,-9.293707,0,0,28.39951,1,1,1000,1000
25252,55:33.6,IMU,57845186,0,-0.004196529,0.008845154,-0.000347469,0.6543558,0.05485321,-9.293453,0,0,28.40172,1,1,1000,1000
25304,55:33.7,IMU,57885170,0,-0.006645207,0.007171652,-0.000535028,0.6581717,0.05360909,-9.282715,0,0,28.40393,1,1,1000,1000
25356,55:33.7,IMU,57925154,0,-0.005831781,0.007431314,-0.000681233,0.6605422,0.05382448,-9.29215,0,0,28.40615,1,1,1000,1000
25456,55:33.8,IMU,57965138,0,-0.005194481,0.004310756,-0.000623535,0.6643061,0.05591609,-9.293865,0,0,28.40836,1,1,1000,1000
25512,55:33.8,IMU,58005122,0,-0.00465375,0.004041847,-0.000482,0.6691953,0.05425677,-9.299841,0,0,28.41057,1,1,1000,1000
25612,55:33.8,IMU,58045106,0,-0.004538689,0.006433291,-0.000667913,0.6719003,0.05565242,-9.286379,0,0,28.41278,1,1,1000,1000
25664,55:33.9,IMU,58085090,0,-0.002810946,0.007247056,-0.000754956,0.6746855,0.05720817,-9.286173,0,0,28.415,1,1,1000,1000
25717,55:33.9,IMU,58125074,0,-0.002533564,0.004586136,-0.000638363,0.6789082,0.05629826,-9.288654,0,0,28.41721,1,1,1000,1000
25817,55:34.0,IMU,58165058,0,-0.002239629,0.004321838,-0.000577267,0.6826489,0.05769517,-9.296474,0,0,28.41947,1,1,1000,1000
25872,55:34.0,IMU,58205042,0,-0.000622222,0.006215749,-0.000570473,0.6849982,0.05876107,-9.282155,0,0,28.42168,1,1,1000,1000
25971,55:34.0,IMU,58245026,0,-0.000895779,0.005731583,-0.000624852,0.6874834,0.05718388,-9.281094,0,0,28.42389,1,1,1000,1000
26023,55:34.1,IMU,58285010,0,-0.000695517,0.005976027,-0.000572515,0.691395,0.05930127,-9.28661,0,0,28.4261,1,1,1000,1000
26075,55:34.1,IMU,58324994,0,-0.000713276,0.005516242,-0.000427746,0.6947132,0.05909733,-9.29189,0,0,28.42826,1,1,1000,1000
26175,55:34.2,IMU,58364978,0,-0.000640927,0.005831535,-0.000622517,0.6968725,0.05968862,-9.27164,0,0,28.43047,1,1,1000,1000
26231,55:34.2,IMU,58404962,0,-0.000188895,0.005483123,-0.000507448,0.6998115,0.05931941,-9.27471,0,0,28.43268,1,1,1000,1000
26332,55:34.2,IMU,58444946,0,-0.000214644,0.005065576,-0.000440797,0.7037532,0.06016418,-9.281863,0,0,28.43489,1,1,1000,1000
26386,55:34.3,IMU,58484930,0,-0.002308784,0.004763419,-0.000421978,0.7072208,0.06051522,-9.28455,0,0,28.4371,1,1,1000,1000
26439,55:34.3,IMU,58524914,0,-0.002398146,0.005351062,-0.000574581,0.7089231,0.06138696,-9.270475,0,0,28.4393,1,1,1000,1000
26541,55:34.4,IMU,58564898,0,-0.002355784,0.00768938,-0.000603858,0.7102304,0.06151472,-9.271352,0,0,28.44151,1,1,1000,1000
26597,55:34.4,IMU,58604882,0,-0.002098375,0.006895919,-0.000533815,0.7148684,0.0620345,-9.278579,0,0,28.44372,1,1,1000,1000
26695,55:34.4,IMU,58644866,0,-0.000826135,0.006000765,-0.000706898,0.7163568,0.06304628,-9.266404,0,0,28.44593,1,1,1000,1000
26748,55:34.5,IMU,58684850,0,-0.00077411,0.005309459,-0.000883598,0.7177155,0.06218126,-9.262229,0,0,28.44813,1,1,1000,1000
26803,55:34.5,IMU,58724834,0,-0.00058987,0.007250011,-0.000802367,0.7208546,0.06391863,-9.266867,0,0,28.45034,1,1,1000,1000
26902,55:34.6,IMU,58764818,0,-0.000244719,0.006596225,-0.000644031,0.7248199,0.06358907,-9.272067,0,0,28.45255,1,1,1000,1000
26958,55:34.6,IMU,58804802,0,0.000499827,0.006037689,-0.000887911,0.7256808,0.06361306,-9.255382,0,0,28.45475,1,1,1000,1000
27057,55:34.6,IMU,58844786,0,0.000512782,0.006359589,-0.000964555,0.7281095,0.06396353,-9.258022,0,0,28.45696,1,1,1000,1000
27109,55:34.7,IMU,58884770,0,0.000470255,0.006221941,-0.00082248,0.7300619,0.06602065,-9.263342,0,0,28.45916,1,1,1000,1000
27161,55:34.7,IMU,58924754,0,0.001491346,0.005295163,-0.000896946,0.7325747,0.06498612,-9.247903,0,0,28.46137,1,1,1000,1000
27261,55:34.8,IMU,58964738,0,0.001381599,0.005357824,-0.000814359,0.7333221,0.06589562,-9.243807,0,0,28.46357,1,1,1000,1000
27318,55:34.8,IMU,59004722,0,0.001393482,0.004992854,-0.000752373,0.7364582,0.06820009,-9.252483,0,0,28.46578,1,1,1000,1000
27418,55:34.8,IMU,59044706,0,0.001212651,0.004615879,-0.00064153,0.738187,0.06773639,-9.257168,0,0,28.46798,1,1,1000,1000
27470,55:34.9,IMU,59084690,0,0.000356199,0.005162642,-0.000673342,0.7407106,0.0672484,-9.232333,0,0,28.47019,1,1,1000,1000
27523,55:34.9,IMU,59124674,0,0.000420796,0.00482751,-0.000644356,0.7422308,0.06768673,-9.240832,0,0,28.47239,1,1,1000,1000
27622,55:35.0,IMU,59164658,0,0.000581375,0.004481294,-0.000501668,0.744795,0.06855763,-9.246437,0,0,28.47459,1,1,1000,1000
27678,55:35.0,IMU,59204642,0,0.000582794,0.002754944,-0.000681548,0.7457246,0.06940799,-9.227447,0,0,28.4768,1,1,1000,1000
27777,55:35.0,IMU,59244626,0,0.000451603,0.00218544,-0.000538219,0.7474476,0.07050632,-9.229608,0,0,28.479,1,1,1000,1000
27828,55:35.1,IMU,59284610,0,0.00071569,0.002078785,-0.000410267,0.7492412,0.07008012,-9.234192,0,0,28.4812,1,1,1000,1000
27881,55:35.1,IMU,59324594,0,0.001403158,0.004173859,-0.000552308,0.7517459,0.07062723,-9.218571,0,0,28.48341,1,1,1000,1000
27981,55:35.2,IMU,59364578,0,0.001248581,0.007270275,-0.000606915,0.7530878,0.07173865,-9.218418,0,0,28.48561,1,1,1000,1000
28036,55:35.2,IMU,59405395,0,0.002403568,0.006563202,-0.000516947,0.7548555,0.07051327,-9.219489,0,0,28.48787,1,1,1000,1000
28137,55:35.2,IMU,59445379,0,0.001563427,0.005659967,-0.000605584,0.7561973,0.07063694,-9.207187,0,0,28.49006,1,1,1000,1000
28191,55:35.3,IMU,59485363,0,0.001853929,0.004689612,-0.000644676,0.758449,0.07228564,-9.207363,0,0,28.49227,1,1,1000,1000
28244,55:35.3,IMU,59525347,0,0.003937847,0.004462183,-0.000544507,0.7593231,0.07061091,-9.207018,0,0,28.49447,1,1,1000,1000
28346,55:35.4,IMU,59565331,0,0.001433574,0.004438827,-0.00063464,0.7605737,0.07252853,-9.188358,0,0,28.49667,1,1,1000,1000
28402,55:35.4,IMU,59605315,0,0.001508385,0.003774858,-0.000568184,0.7605249,0.07260765,-9.19522,0,0,28.49887,1,1,1000,1000
28500,55:35.4,IMU,59645299,0,0.003589996,0.005259227,-0.00050493,0.7614608,0.07349455,-9.181643,0,0,28.50107,1,1,1000,1000
28553,55:35.5,IMU,59685283,0,0.002101011,0.005008828,-0.000497494,0.7636566,0.07331245,-9.176161,0,0,28.50327,1,1,1000,1000
28606,55:35.5,IMU,59725267,0,0.001690174,0.004715845,-0.000380996,0.7648837,0.07285079,-9.173228,0,0,28.50547,1,1,1000,1000
28705,55:35.6,IMU,59765251,0,0.001891366,0.005316267,-0.000488129,0.7659621,0.07304133,-9.159149,0,0,28.50767,1,1,1000,1000
28760,55:35.6,IMU,59805235,0,0.003130807,0.00423573,-0.000455917,0.7660723,0.07483257,-9.152232,0,0,28.50987,1,1,1000,1000
28859,55:35.6,IMU,59845219,0,0.003459808,0.002751278,-0.000499539,0.7667684,0.07423383,-9.139032,0,0,28.51201,1,1,1000,1000
28911,55:35.7,IMU,59885203,0,0.00221457,0.006732979,-0.00047051,0.7682856,0.07517345,-9.117962,0,0,28.51421,1,1,1000,1000
28963,55:35.7,IMU,59925187,0,-0.00109821,0.005807145,-0.000534884,0.7682066,0.07391553,-9.097654,0,0,28.51641,1,1,1000,1000
29063,55:35.8,IMU,59965171,0,0.001376894,0.005411631,-0.000537526,0.7691776,0.07377969,-9.087621,0,0,28.5186,1,1,1000,1000
29118,55:35.8,IMU,60005155,0,-0.000200796,0.005035755,-0.000552287,0.7711382,0.07557248,-9.074041,0,0,28.5208,1,1,1000,1000
29219,55:35.8,IMU,60045139,0,0.001452539,0.004732577,-0.000469457,0.7709447,0.07466047,-9.080078,0,0,28.523,1,1,1000,1000
29271,55:35.9,IMU,60085123,0,0.00111466,0.004444277,-0.000627221,0.7725074,0.07421329,-9.081564,0,0,28.5252,1,1,1000,1000
29324,55:35.9,IMU,60125107,0,0.001950725,0.004121694,-0.000751853,0.772976,0.07598394,-9.096288,0,0,28.52739,1,1,1000,1000
29423,55:36.0,IMU,60165091,0,0.002296932,0.004782654,-0.000607353,0.7747337,0.07497815,-9.114771,0,0,28.52959,1,1,1000,1000
29479,55:36.0,IMU,60205075,0,0.002097864,0.004439652,-0.000546893,0.7767473,0.07525919,-9.145155,0,0,28.53178,1,1,1000,1000
29578,55:36.0,IMU,60245059,0,0.004910644,0.00323071,-0.000321967,0.7792819,0.07653495,-9.185978,0,0,28.53403,1,1,1000,1000
29629,55:36.1,IMU,60285043,0,0.002359777,0.003111617,-0.000326509,0.7807351,0.07576504,-9.223198,0,0,28.53623,1,1,1000,1000
29682,55:36.1,IMU,60325027,0,0.004357251,0.002889623,-0.000225125,0.7824468,0.07826823,-9.263274,0,0,28.53842,1,1,1000,1000
29782,55:36.2,IMU,60365011,0,0.002461983,0.00185237,-0.000295095,0.7844983,0.0771912,-9.305801,0,0,28.54062,1,1,1000,1000
29837,55:36.2,IMU,60404995,0,0.002050357,0.000546958,-0.000230973,0.7876788,0.07812271,-9.355321,0,0,28.54276,1,1,1000,1000
29938,55:36.2,IMU,60444979,0,0.004434033,0.002608303,-0.000187973,0.7889225,0.07734575,-9.405089,0,0,28.54495,1,1,1000,1000
29996,55:36.3,IMU,60484963,0,0.000799055,-0.001785339,-0.000120441,0.7913063,0.07867759,-9.450396,0,0,28.54715,1,1,1000,1000
30049,55:36.3,IMU,60524947,0,0.002046326,-0.000864582,-4.68e-05,0.79369,0.07921629,-9.495998,0,0,28.54934,1,1,1000,1000
30151,55:36.4,IMU,60564931,0,0.001896475,-8.56e-05,-0.000111357,0.7939726,0.07902648,-9.540497,0,0,28.55153,1,1,1000,1000
30208,55:36.4,IMU,60604915,0,0.003308944,-0.005235268,-4.04e-05,0.7963971,0.07939073,-9.582314,0,0,28.55373,1,1,1000,1000
30306,55:36.4,IMU,60644899,0,0.001271732,-0.000997271,-0.000183684,0.7978116,0.07825074,-9.621126,0,0,28.55592,1,1,1000,1000
30358,55:36.5,IMU,60684883,0,0.004008105,-0.004676913,-5.31e-05,0.7990241,0.07880603,-9.654831,0,0,28.55811,1,1,1000,1000
30411,55:36.5,IMU,60724867,0,0.000609072,-0.005016822,-5.51e-05,0.8005487,0.07917657,-9.693189,0,0,28.5603,1,1,1000,1000
30510,55:36.6,IMU,60764851,0,9.252185e-05,-0.004512353,5.003245e-05,0.8012188,0.08015411,-9.723601,0,0,28.5625,1,1,1000,1000
30564,55:36.6,IMU,60804835,0,0.003038089,-0.005983766,0.000113111,0.802296,0.07926843,-9.75758,0,0,28.56469,1,1,1000,1000
30662,55:36.6,IMU,60844819,0,0.000259272,-0.003585203,6.180967e-05,0.8044914,0.0788886,-9.786211,0,0,28.56688,1,1,1000,1000
30713,55:36.7,IMU,60884803,0,4.632052e-05,-0.003782583,6.806898e-05,0.8041883,0.07947284,-9.794007,0,0,28.56907,1,1,1000,1000
30765,55:36.7,IMU,60924787,0,0.003914385,-0.004644895,0.00018624,0.8049845,0.08005343,-9.823893,0,0,28.57126,1,1,1000,1000
30866,55:36.8,IMU,60964771,0,0.002900159,-0.006189889,0.000234026,0.8054276,0.0807324,-9.835287,0,0,28.57345,1,1,1000,1000
30920,55:36.8,IMU,61004755,0,0.002385843,-0.004436783,6.745599e-05,0.8055864,0.08023365,-9.855715,0,0,28.57564,1,1,1000,1000
31021,55:36.8,IMU,61044739,0,0.002395558,-0.004080065,0.000178527,0.8069818,0.07953554,-9.855148,0,0,28.57783,1,1,1000,1000
31072,55:36.9,IMU,61084723,0,-0.001466542,-0.007285561,8.820492e-05,0.8064325,0.07980783,-9.873251,0,0,28.58002,1,1,1000,1000
31124,55:36.9,IMU,61124707,0,-0.001292556,-0.003423681,8.190851e-05,0.8071535,0.08007169,-9.883091,0,0,28.58221,1,1,1000,1000
31223,55:37.0,IMU,61164691,0,0.000523526,-0.003815467,-4.94e-05,0.8063922,0.07975452,-9.884309,0,0,28.5844,1,1,1000,1000
31277,55:37.0,IMU,61204675,0,-0.000409432,-0.003397065,-4.97e-05,0.8069269,0.08017404,-9.886018,0,0,28.58659,1,1,1000,1000
31376,55:37.0,IMU,61244659,0,-0.000196371,-0.003051816,0.000113796,0.8041466,0.0792264,-9.884142,0,0,28.58877,1,1,1000,1000
31427,55:37.1,IMU,61284643,0,-0.0001647,-0.00278961,0.000138148,0.8063493,0.08037829,-9.883017,0,0,28.59096,1,1,1000,1000
31479,55:37.1,IMU,61324627,0,-0.000106921,-0.002415404,0.000174916,0.8049636,0.07985002,-9.883225,0,0,28.59315,1,1,1000,1000
31578,55:37.2,IMU,61364611,0,5.051996e-06,-0.002227243,0.000211388,0.8058544,0.07880764,-9.881481,0,0,28.59534,1,1,1000,1000
31633,55:37.2,IMU,61404595,0,0.00013454,-0.002919907,0.000296892,0.8048263,0.07975659,-9.882074,0,0,28.59752,1,1,1000,1000
31733,55:37.2,IMU,61444579,0,0.0001498,-0.002656343,0.00030313,0.8038312,0.07874391,-9.879775,0,0,28.59971,1,1,1000,1000
31786,55:37.3,IMU,61485396,0,0.000195597,-0.004215719,0.000390967,0.8035992,0.07978622,-9.879058,0,0,28.60195,1,1,1000,1000
31838,55:37.3,IMU,61525380,0,0.000706216,-0.007319753,0.000259257,0.8044302,0.07873538,-9.857189,0,0,28.60414,1,1,1000,1000
31940,55:37.4,IMU,61565364,0,0.000666697,-0.007718535,9.451465e-05,0.802601,0.07963665,-9.855308,0,0,28.60632,1,1,1000,1000
31995,55:37.4,IMU,61605348,0,-0.000407417,-0.007682082,-4.4e-05,0.8026437,0.07981676,-9.851992,0,0,28.60851,1,1,1000,1000
32093,55:37.4,IMU,61645332,0,0.000585622,-0.004003083,-0.000157214,0.8009226,0.08081947,-9.844952,0,0,28.61069,1,1,1000,1000
32144,55:37.5,IMU,61685316,0,0.000572628,-0.004539578,-8.82e-05,0.8015541,0.07875545,-9.841848,0,0,28.61288,1,1,1000,1000
32197,55:37.5,IMU,61725300,0,0.00058884,-0.00415965,1.236684e-05,0.8002837,0.08035932,-9.841066,0,0,28.61507,1,1,1000,1000
32296,55:37.6,IMU,61765284,0,0.000610479,-0.00164577,0.000126184,0.8004423,0.08066483,-9.838363,0,0,28.61725,1,1,1000,1000
32350,55:37.6,IMU,61805268,0,0.000926777,-0.00114251,0.00019645,0.7992153,0.0800756,-9.815599,0,0,28.61943,1,1,1000,1000
32448,55:37.6,IMU,61845252,0,0.00157654,0.000489478,0.000404793,0.7990656,0.0791622,-9.811681,0,0,28.62162,1,1,1000,1000
32500,55:37.7,IMU,61885236,0,0.001670357,0.000504625,0.000623213,0.7980409,0.07995658,-9.809869,0,0,28.6238,1,1,1000,1000
32552,55:37.7,IMU,61925220,0,-0.001235876,0.000571881,0.000710356,0.7969047,0.08014414,-9.806869,0,0,28.62593,1,1,1000,1000
32651,55:37.8,IMU,61965204,0,-0.000913182,0.000505775,0.000677831,0.7966303,0.08085883,-9.805166,0,0,28.62811,1,1,1000,1000
32705,55:37.8,IMU,62005188,0,-0.000773671,0.000518275,0.000734536,0.797621,0.08036041,-9.806779,0,0,28.6303,1,1,1000,1000
32806,55:37.8,IMU,62045172,0,-0.00061467,0.000583571,0.000733576,0.7957544,0.07882777,-9.806765,0,0,28.63248,1,1,1000,1000
32857,55:37.9,IMU,62085156,0,0.000743205,0.002658006,0.000736706,0.7946099,0.08051934,-9.798353,0,0,28.63466,1,1,1000,1000
32909,55:37.9,IMU,62125140,0,0.001312197,0.002764985,0.000632281,0.7941186,0.07992806,-9.794065,0,0,28.63684,1,1,1000,1000
33008,55:38.0,IMU,62165124,0,0.001229123,0.000714769,0.000476874,0.7933125,0.08108681,-9.791043,0,0,28.63902,1,1,1000,1000
33062,55:38.0,IMU,62205108,0,0.001143777,-0.000573697,0.000478546,0.7940961,0.07978265,-9.789708,0,0,28.64121,1,1,1000,1000
33161,55:38.0,IMU,62245092,0,0.001187243,0.001412687,0.000526992,0.7944534,0.08033241,-9.789673,0,0,28.64339,1,1,1000,1000
33212,55:38.1,IMU,62285076,0,0.002830204,0.001830896,0.000450676,0.7945244,0.08092058,-9.790727,0,0,28.64557,1,1,1000,1000
33264,55:38.1,IMU,62325060,0,0.00222433,0.000827915,0.00056591,0.7933072,0.08034159,-9.79032,0,0,28.6478,1,1,1000,1000
33363,55:38.2,IMU,62365044,0,0.002905549,0.001035767,0.000511656,0.7922587,0.0807789,-9.789576,0,0,28.64998,1,1,1000,1000
33418,55:38.2,IMU,62405028,0,0.002187159,-0.001126197,0.000605173,0.7920953,0.08192157,-9.788767,0,0,28.65216,1,1,1000,1000
33518,55:38.2,IMU,62445012,0,0.001877658,-0.000994988,0.000648973,0.7916238,0.08237371,-9.789465,0,0,28.65434,1,1,1000,1000
33572,55:38.3,IMU,62484996,0,0.003604019,0.000859464,0.000718653,0.7907578,0.07955093,-9.789063,0,0,28.65647,1,1,1000,1000
33624,55:38.3,IMU,62524980,0,0.004556646,0.004643157,0.00074112,0.790627,0.08109342,-9.788758,0,0,28.65865,1,1,1000,1000
33726,55:38.4,IMU,62564964,0,0.004613018,0.004415357,0.000808843,0.7896809,0.08098421,-9.788754,0,0,28.66083,1,1,1000,1000
33781,55:38.4,IMU,62604948,0,0.001459414,0.001702862,0.000814629,0.7914907,0.08050731,-9.788361,0,0,28.663,1,1,1000,1000
33879,55:38.4,IMU,62644932,0,0.000770953,0.000328583,0.000895239,0.790624,0.08154281,-9.78817,0,0,28.66518,1,1,1000,1000
33930,55:38.5,IMU,62684916,0,0.001211437,0.001365919,0.000909139,0.7908826,0.08192173,-9.788815,0,0,28.66736,1,1,1000,1000
33982,55:38.5,IMU,62724900,0,0.000214494,0.001962843,0.001002643,0.7902352,0.0808719,-9.787447,0,0,28.66954,1,1,1000,1000
34084,55:38.6,IMU,62764884,0,-0.000142414,0.002739013,0.001078647,0.790406,0.08107652,-9.789857,0,0,28.67171,1,1,1000,1000
34138,55:38.6,IMU,62804868,0,-0.000336605,0.001265968,0.001099273,0.7899443,0.08099745,-9.789009,0,0,28.67389,1,1,1000,1000
34236,55:38.6,IMU,62844852,0,0.000269727,0.001577909,0.001298751,0.7898051,0.08059327,-9.787584,0,0,28.67607,1,1,1000,1000
34287,55:38.7,IMU,62884836,0,0.002264319,0.002357834,0.001414508,0.788743,0.08170978,-9.789368,0,0,28.67824,1,1,1000,1000
34339,55:38.7,IMU,62924820,0,0.003683286,0.002839695,0.001464793,0.789936,0.0814284,-9.786931,0,0,28.68042,1,1,1000,1000
34438,55:38.8,IMU,62964804,0,0.003358074,0.002692731,0.001588931,0.788919,0.08196983,-9.787341,0,0,28.6826,1,1,1000,1000
34492,55:38.8,IMU,63004788,0,0.002530248,0.002051681,0.00154074,0.7882506,0.08143235,-9.78886,0,0,28.68477,1,1,1000,1000
34593,55:38.8,IMU,63044772,0,0.00219138,0.00171171,0.001629299,0.7893783,0.08189929,-9.784925,0,0,28.68695,1,1,1000,1000
34644,55:38.9,IMU,63084756,0,0.004743638,0.004339778,0.001742453,0.7880867,0.08119892,-9.787762,0,0,28.68912,1,1,1000,1000
34697,55:38.9,IMU,63124740,0,0.005074472,0.00405169,0.001649703,0.7879921,0.08104078,-9.788315,0,0,28.6913,1,1,1000,1000
34796,55:39.0,IMU,63164724,0,0.00353679,0.003453062,0.001649069,0.7885361,0.07993203,-9.78443,0,0,28.69347,1,1,1000,1000
34850,55:39.0,IMU,63204708,0,0.002785937,0.002113536,0.001672317,0.7883388,0.07906138,-9.786146,0,0,28.69564,1,1,1000,1000
34948,55:39.0,IMU,63244692,0,0.002660337,0.000960157,0.001576208,0.7885323,0.08054136,-9.785976,0,0,28.69782,1,1,1000,1000
35000,55:39.1,IMU,63284676,0,0.002958848,0.002954535,0.001589114,0.7880106,0.08056074,-9.784611,0,0,28.69999,1,1,1000,1000
35052,55:39.1,IMU,63324660,0,0.000718397,0.000915038,0.001580774,0.7878035,0.08096005,-9.781992,0,0,28.70217,1,1,1000,1000
35151,55:39.2,IMU,63364644,0,-0.000854076,-0.001319266,0.001552041,0.7877303,0.08052371,-9.784451,0,0,28.70434,1,1,1000,1000
35206,55:39.2,IMU,63404628,0,-0.000863715,0.001898268,0.001743453,0.7873859,0.07989939,-9.775624,0,0,28.70651,1,1,1000,1000
35306,55:39.2,IMU,63444612,0,-0.000822392,0.001688586,0.001861081,0.7883734,0.07993366,-9.775071,0,0,28.70868,1,1,1000,1000
35359,55:39.3,IMU,63484596,0,0.001571137,0.003565988,0.002014229,0.7877109,0.07907251,-9.776594,0,0,28.71086,1,1,1000,1000
35411,55:39.3,IMU,63524580,0,0.004589458,0.003288812,0.002193382,0.7873845,0.08090706,-9.773642,0,0,28.71303,1,1,1000,1000
35513,55:39.4,IMU,63565397,0,0.001488232,0.001376279,0.002035919,0.7873372,0.07962076,-9.773796,0,0,28.71525,1,1,1000,1000
35568,55:39.4,IMU,63605381,0,0.001430947,0.002216034,0.001964173,0.7876578,0.07947668,-9.772899,0,0,28.71742,1,1,1000,1000
35666,55:39.4,IMU,63645365,0,0.001450054,0.001998646,0.001911364,0.7862981,0.07961591,-9.771612,0,0,28.71959,1,1,1000,1000
35717,55:39.5,IMU,63685349,0,0.001385812,0.001903257,0.001765237,0.7860978,0.07960999,-9.771627,0,0,28.72177,1,1,1000,1000
35769,55:39.5,IMU,63725333,0,0.001354924,0.001819998,0.001720996,0.785381,0.07942221,-9.771419,0,0,28.72394,1,1,1000,1000
35869,55:39.6,IMU,63765317,0,0.001323727,0.001733743,0.001638735,0.787519,0.07939711,-9.772323,0,0,28.7261,1,1,1000,1000
35923,55:39.6,IMU,63805301,0,0.00129436,0.001696955,0.00154946,0.7869575,0.07980558,-9.772361,0,0,28.72828,1,1,1000,1000
36021,55:39.6,IMU,63845285,0,0.001287918,0.001574862,0.001565871,0.7871625,0.07947569,-9.772233,0,0,28.73045,1,1,1000,1000
36072,55:39.7,IMU,63885269,0,0.001208699,0.001573753,0.001474921,0.7868467,0.07857457,-9.772151,0,0,28.73261,1,1,1000,1000
36124,55:39.7,IMU,63925253,0,0.00123167,0.001598809,0.001436308,0.7862602,0.07899611,-9.772225,0,0,28.73478,1,1,1000,1000
36223,55:39.8,IMU,63965237,0,0.001194899,0.001507033,0.001405991,0.7868727,0.07891041,-9.773128,0,0,28.73695,1,1,1000,1000
36277,55:39.8,IMU,64005221,0,0.00112039,0.001444247,0.001415919,0.786626,0.07919513,-9.773521,0,0,28.73907,1,1,1000,1000
36377,55:39.8,IMU,64045205,0,0.001113366,0.001388757,0.00126588,0.7874126,0.07835611,-9.772867,0,0,28.74123,1,1,1000,1000
36429,55:39.9,IMU,64085189,0,0.00110713,0.002723196,0.001355848,0.7866846,0.0778712,-9.771947,0,0,28.7434,1,1,1000,1000
36481,55:39.9,IMU,64125173,0,0.001095367,0.000353021,0.001451885,0.7868555,0.07881646,-9.768978,0,0,28.74557,1,1,1000,1000
36580,55:40.0,IMU,64165157,0,0.001051946,-0.000271541,0.001626855,0.7869423,0.07871889,-9.766511,0,0,28.74773,1,1,1000,1000
36634,55:40.0,IMU,64205141,0,0.00107044,0.000198944,0.001788765,0.7872834,0.07858381,-9.76825,0,0,28.7499,1,1,1000,1000
36732,55:40.0,IMU,64245125,0,0.001117135,0.002284494,0.001802966,0.7881539,0.07924239,-9.773558,0,0,28.75207,1,1,1000,1000
36784,55:40.1,IMU,64285109,0,0.001257806,0.002077297,0.001800586,0.7870147,0.0772478,-9.7729,0,0,28.75423,1,1,1000,1000
36836,55:40.1,IMU,64325093,0,0.001261749,0.002163358,0.001394971,0.7863827,0.07927138,-9.767282,0,0,28.7564,1,1,1000,1000
36936,55:40.2,IMU,64365077,0,0.001072583,0.00149737,0.001199221,0.7879926,0.07772805,-9.763544,0,0,28.75857,1,1,1000,1000
36991,55:40.2,IMU,64405061,0,0.002142185,-6.78e-05,0.001006002,0.7873614,0.07900001,-9.770103,0,0,28.76079,1,1,1000,1000
37091,55:40.2,IMU,64445045,0,-0.000338082,0.000160976,0.000940534,0.7886438,0.07764986,-9.773741,0,0,28.76295,1,1,1000,1000
37144,55:40.3,IMU,64485029,0,0.002090072,0.002996906,0.000925031,0.7868265,0.07733887,-9.771719,0,0,28.76512,1,1,1000,1000
37196,55:40.3,IMU,64525013,0,0.002515662,0.002588501,0.001013037,0.787335,0.07711345,-9.773287,0,0,28.76728,1,1,1000,1000
37298,55:40.4,IMU,64564997,0,0.002422986,0.002921219,0.001148799,0.787923,0.07848955,-9.771282,0,0,28.76939,1,1,1000,1000
37353,55:40.4,IMU,64604981,0,0.002305908,-0.000393446,0.001224529,0.7869211,0.07662342,-9.774817,0,0,28.77155,1,1,1000,1000
37451,55:40.4,IMU,64644965,0,0.002085083,-0.000153853,0.001147275,0.7884274,0.07725108,-9.776316,0,0,28.77372,1,1,1000,1000
37502,55:40.5,IMU,64684949,0,0.002031149,0.002484986,0.001192478,0.7868466,0.07735882,-9.772509,0,0,28.77588,1,1,1000,1000
37554,55:40.5,IMU,64724933,0,0.001973408,0.002646527,0.00121557,0.7877554,0.07759614,-9.775577,0,0,28.77804,1,1,1000,1000
37653,55:40.6,IMU,64764917,0,0.001889178,0.002503607,0.00115754,0.7877122,0.07689384,-9.775735,0,0,28.78021,1,1,1000,1000
37708,55:40.6,IMU,64804901,0,0.001528459,0.002359332,0.001171462,0.7869186,0.07599206,-9.77652,0,0,28.78237,1,1,1000,1000
37806,55:40.6,IMU,64844885,0,0.002014855,0.00172423,0.001380123,0.7882156,0.07651589,-9.785358,0,0,28.78453,1,1,1000,1000
37857,55:40.7,IMU,64884869,0,0.002193032,-4.78e-05,0.001598688,0.7878031,0.07641282,-9.790683,0,0,28.78669,1,1,1000,1000
37909,55:40.7,IMU,64924853,0,0.002222479,4.316415e-05,0.001551723,0.7872411,0.0761314,-9.787984,0,0,28.78885,1,1,1000,1000
38008,55:40.8,IMU,64964837,0,-0.000859034,0.001138856,0.001597139,0.7884521,0.07644153,-9.790045,0,0,28.79102,1,1,1000,1000
38062,55:40.8,IMU,65004821,0,-0.002340216,0.000505545,0.001644904,0.7868622,0.07735538,-9.791003,0,0,28.79318,1,1,1000,1000
38162,55:40.8,IMU,65044805,0,-0.0019919,0.001149408,0.001530976,0.7898648,0.07611513,-9.791801,0,0,28.79534,1,1,1000,1000
38214,55:40.9,IMU,65084789,0,-0.00010976,-0.000609817,0.001520199,0.787577,0.07573688,-9.791954,0,0,28.7975,1,1,1000,1000
38266,55:40.9,IMU,65124773,0,2.41549e-05,0.000333534,0.001495474,0.7891278,0.07596283,-9.794309,0,0,28.79966,1,1,1000,1000
38365,55:41.0,IMU,65164757,0,0.000935078,0.000325421,0.001339135,0.7885222,0.0760503,-9.79369,0,0,28.80182,1,1,1000,1000
38419,55:41.0,IMU,65204741,0,-0.001590368,4.656671e-05,0.001178231,0.7896833,0.07494022,-9.794779,0,0,28.80398,1,1,1000,1000
38517,55:41.0,IMU,65244725,0,-0.000685889,0.002240105,0.001166319,0.788926,0.07521896,-9.793083,0,0,28.80614,1,1,1000,1000
38568,55:41.1,IMU,65284709,0,-0.000546127,0.003371553,0.00105818,0.7890618,0.07606329,-9.792528,0,0,28.8083,1,1,1000,1000
38621,55:41.1,IMU,65324693,0,0.000795996,0.003385225,0.001018671,0.7894933,0.07532848,-9.79376,0,0,28.81046,1,1,1000,1000
38720,55:41.2,IMU,65364677,0,-0.000218549,0.002402033,0.001023211,0.7891164,0.07506354,-9.793987,0,0,28.81261,1,1,1000,1000
38775,55:41.2,IMU,65404661,0,-0.00207323,2.137243e-05,0.000839034,0.7899202,0.0759154,-9.792259,0,0,28.81477,1,1,1000,1000
38875,55:41.2,IMU,65444645,0,-0.001757222,-0.0003718,0.000855228,0.7896025,0.07560964,-9.791982,0,0,28.81693,1,1,1000,1000
38928,55:41.3,IMU,65484629,0,-0.001330883,-5.75e-05,0.000780119,0.7903517,0.07601611,-9.79301,0,0,28.81909,1,1,1000,1000
38980,55:41.3,IMU,65524613,0,-0.000737007,-0.000643238,0.000741486,0.7883617,0.07566485,-9.790981,0,0,28.82125,1,1,1000,1000
39081,55:41.4,IMU,65564597,0,-8.41e-05,-0.000752324,0.000677237,0.7901243,0.07500357,-9.786281,0,0,28.8234,1,1,1000,1000
39137,55:41.4,IMU,65604581,0,-0.001485099,-0.001700178,0.000371068,0.7899314,0.07546052,-9.782493,0,0,28.82556,1,1,1000,1000
39236,55:41.4,IMU,65645398,0,0.001536608,-0.000888152,0.000218252,0.790186,0.07433736,-9.788225,0,0,28.82777,1,1,1000,1000
39287,55:41.5,IMU,65685382,0,0.001862406,-0.000988502,0.00025358,0.7890358,0.07576554,-9.788972,0,0,28.82993,1,1,1000,1000
39339,55:41.5,IMU,65725366,0,0.001902493,0.000213579,0.000218364,0.7893232,0.07484552,-9.780624,0,0,28.83208,1,1,1000,1000
39438,55:41.6,IMU,65765350,0,0.00177664,0.00114017,8.181068e-05,0.7891366,0.07496129,-9.783195,0,0,28.83424,1,1,1000,1000
39497,55:41.6,IMU,65805334,0,-0.001834254,0.00013421,1.683937e-05,0.78971,0.07583816,-9.782752,0,0,28.83639,1,1,1000,1000
39596,55:41.6,IMU,65845318,0,-0.001130018,0.000208378,-0.000101521,0.7898945,0.07502283,-9.780514,0,0,28.83855,1,1,1000,1000
39647,55:41.7,IMU,65885302,0,-0.003184506,0.001903219,-0.000368645,0.7897971,0.0755692,-9.786777,0,0,28.8407,1,1,1000,1000
39699,55:41.7,IMU,65925286,0,-0.01037633,0.001620047,-0.00057672,0.7909128,0.07489479,-9.792341,0,0,28.84286,1,1,1000,1000
39800,55:41.8,IMU,65965270,0,-0.01975583,-0.00010699,-0.000833036,0.7911854,0.07437376,-9.794456,0,0,28.84501,1,1,1000,1000
39854,55:41.8,IMU,66005254,0,-0.03303699,-0.003623602,-0.001163774,0.7907119,0.0743909,-9.798792,0,0,28.84716,1,1,1000,1000
39954,55:41.8,IMU,66045238,0,-0.04512914,-0.003122749,-0.001553251,0.7900179,0.07572506,-9.798955,0,0,28.84932,1,1,1000,1000
40006,55:41.9,IMU,66085222,0,-0.059615,-0.002816372,-0.002164745,0.7909897,0.07368419,-9.822025,0,0,28.85142,1,1,1000,1000
40058,55:41.9,IMU,66125206,0,-0.0728066,-0.002559737,-0.002965003,0.7918419,0.07582293,-9.823828,0,0,28.85357,1,1,1000,1000
40157,55:42.0,IMU,66165190,0,-0.0817845,-0.005728569,-0.003706724,0.7917506,0.07615671,-9.843691,0,0,28.85572,1,1,1000,1000
40211,55:42.0,IMU,66205174,0,-0.09069015,-0.004675426,-0.004618296,0.7915295,0.07806487,-9.850334,0,0,28.85788,1,1,1000,1000
40309,55:42.0,IMU,66245158,0,-0.09343582,-0.00440221,-0.005583609,0.7927446,0.07914342,-9.868793,0,0,28.86003,1,1,1000,1000
40360,55:42.1,IMU,66285142,0,-0.09511034,-0.004512761,-0.006712072,0.7917385,0.08128085,-9.87446,0,0,28.86218,1,1,1000,1000
40413,55:42.1,IMU,66325126,0,-0.09850693,-0.003941789,-0.007841957,0.792331,0.08448879,-9.894495,0,0,28.86433,1,1,1000,1000
40512,55:42.2,IMU,66365110,0,-0.09801899,-0.007849105,-0.009025481,0.7925163,0.08612119,-9.901043,0,0,28.86648,1,1,1000,1000
40567,55:42.2,IMU,66405094,0,-0.09668085,-0.008480765,-0.01022059,0.7933028,0.09033695,-9.922346,0,0,28.86863,1,1,1000,1000
40667,55:42.2,IMU,66445078,0,-0.09594152,-0.01005131,-0.01137514,0.7936075,0.09295978,-9.935536,0,0,28.87078,1,1,1000,1000
40720,55:42.3,IMU,66485062,0,-0.09458373,-0.009726815,-0.0127789,0.7919755,0.09835464,-9.94711,0,0,28.87299,1,1,1000,1000
40772,55:42.3,IMU,66525046,0,-0.09429339,-0.007528215,-0.0139522,0.7924962,0.1023383,-9.962628,0,0,28.87514,1,1,1000,1000
40873,55:42.4,IMU,66565030,0,-0.09398836,-0.008155813,-0.01537547,0.7930505,0.1080062,-9.974903,0,0,28.87729,1,1,1000,1000
40929,55:42.4,IMU,66605014,0,-0.09208889,-0.01033533,-0.01658013,0.7929375,0.1134086,-9.99907,0,0,28.87944,1,1,1000,1000
41027,55:42.4,IMU,66644998,0,-0.09029295,-0.009021988,-0.01785663,0.7922373,0.1194108,-9.998413,0,0,28.88153,1,1,1000,1000
41078,55:42.5,IMU,66684982,0,-0.08674449,-0.004606023,-0.01914866,0.7916368,0.1253906,-10.02144,0,0,28.88368,1,1,1000,1000
41130,55:42.5,IMU,66724966,0,-0.08759034,-0.006548665,-0.02036345,0.7911988,0.1319736,-10.02709,0,0,28.88583,1,1,1000,1000
41231,55:42.6,IMU,66764950,0,-0.08428137,-0.008506876,-0.02159839,0.7901343,0.1383942,-10.04659,0,0,28.88798,1,1,1000,1000
41285,55:42.6,IMU,66804934,0,-0.08765251,-0.01014659,-0.0227743,0.7911754,0.1467884,-10.06209,0,0,28.89013,1,1,1000,1000
41384,55:42.6,IMU,66844918,0,-0.08588716,-0.009509377,-0.02405604,0.7907435,0.1536404,-10.07147,0,0,28.89227,1,1,1000,1000
41435,55:42.7,IMU,66884902,0,-0.0846489,-0.006439502,-0.0252273,0.7904518,0.1629619,-10.09106,0,0,28.89442,1,1,1000,1000
41487,55:42.7,IMU,66924886,0,-0.08388332,-0.005267785,-0.02645853,0.7897097,0.1705241,-10.09624,0,0,28.89657,1,1,1000,1000
41586,55:42.8,IMU,66964870,0,-0.08297136,-0.002947964,-0.02778473,0.7888332,0.1802098,-10.11765,0,0,28.89872,1,1,1000,1000
41640,55:42.8,IMU,67004854,0,-0.08477116,-0.00581322,-0.02897527,0.7877491,0.1891707,-10.13013,0,0,28.90086,1,1,1000,1000
41740,55:42.8,IMU,67044838,0,-0.08289092,-0.007730859,-0.03022135,0.7865571,0.1996142,-10.14109,0,0,28.90301,1,1,1000,1000
41792,55:42.9,IMU,67084822,0,-0.08431002,-0.006588651,-0.03135058,0.7870375,0.2096815,-10.16012,0,0,28.90516,1,1,1000,1000
41844,55:42.9,IMU,67124806,0,-0.08431668,-0.005898062,-0.03516388,0.7861692,0.2195983,-10.16949,0,0,28.9073,1,1,1000,1000
41943,55:43.0,IMU,67164790,0,-0.08436424,-0.007880826,-0.0529248,0.7843585,0.230534,-10.1832,0,0,28.90945,1,1,1000,1000
41997,55:43.0,IMU,67204774,0,-0.08575323,-0.009418451,-0.09418686,0.7817951,0.2429049,-10.19676,0,0,28.91159,1,1,1000,1000
42095,55:43.0,IMU,67244758,0,-0.08689825,-0.008889809,-0.1636115,0.7776536,0.2559739,-10.21261,0,0,28.91374,1,1,1000,1000
42146,55:43.1,IMU,67284742,0,-0.08756388,-0.007041842,-0.2624949,0.7704182,0.2717935,-10.22658,0,0,28.91588,1,1,1000,1000
42198,55:43.1,IMU,67324726,0,-0.08791593,-0.009216718,-0.3895049,0.7600942,0.2916319,-10.23822,0,0,28.91803,1,1,1000,1000
42298,55:43.2,IMU,67364710,0,-0.09009989,-0.01238318,-0.5328813,0.7483891,0.3151829,-10.25773,0,0,28.92017,1,1,1000,1000
42354,55:43.2,IMU,67404694,0,-0.09050643,-0.01699423,-0.6765885,0.7347205,0.3458176,-10.27407,0,0,28.92232,1,1,1000,1000
42454,55:43.2,IMU,67444678,0,-0.08970111,-0.01847602,-0.809564,0.7196105,0.3810885,-10.28553,0,0,28.92446,1,1,1000,1000
42507,55:43.3,IMU,67484662,0,-0.08866241,-0.02091822,-0.925293,0.7012066,0.420816,-10.30002,0,0,28.9266,1,1,1000,1000
42559,55:43.3,IMU,67524646,0,-0.08887535,-0.02411791,-1.021265,0.6766896,0.4643489,-10.31443,0,0,28.92875,1,1,1000,1000
42660,55:43.4,IMU,67564630,0,-0.08942227,-0.03117618,-1.09716,0.6489377,0.5132722,-10.32681,0,0,28.93089,1,1,1000,1000
42716,55:43.4,IMU,67604614,0,-0.09009237,-0.03772824,-1.154416,0.6161531,0.5617592,-10.34226,0,0,28.93303,1,1,1000,1000
42814,55:43.4,IMU,67644598,0,-0.08854152,-0.04212955,-1.194929,0.5797356,0.6101706,-10.3558,0,0,28.93517,1,1,1000,1000
42865,55:43.5,IMU,67684582,0,-0.08868767,-0.04650687,-1.221471,0.5389102,0.6608989,-10.36976,0,0,28.93731,1,1,1000,1000
42917,55:43.5,IMU,67725399,0,-0.08784585,-0.05175843,-1.236705,0.4947676,0.711176,-10.38555,0,0,28.93951,1,1,1000,1000
43016,55:43.6,IMU,67765383,0,-0.08623875,-0.05951585,-1.242321,0.4493273,0.7581239,-10.39868,0,0,28.94165,1,1,1000,1000
43070,55:43.6,IMU,67805367,0,-0.08664153,-0.0682958,-1.240893,0.4018375,0.8038103,-10.41242,0,0,28.94379,1,1,1000,1000
43168,55:43.6,IMU,67845351,0,-0.08728077,-0.07434517,-1.234126,0.3529333,0.8471171,-10.42575,0,0,28.94593,1,1,1000,1000
43220,55:43.7,IMU,67885335,0,-0.08919118,-0.07922452,-1.223473,0.3028224,0.8848106,-10.4443,0,0,28.94807,1,1,1000,1000
43272,55:43.7,IMU,67925319,0,-0.08894487,-0.08593239,-1.210155,0.2545225,0.92291,-10.45573,0,0,28.95021,1,1,1000,1000
43371,55:43.8,IMU,67965303,0,-0.08741407,-0.08953173,-1.195137,0.2051597,0.9553452,-10.47435,0,0,28.95235,1,1,1000,1000
43425,55:43.8,IMU,68005287,0,-0.08435339,-0.09665832,-1.17951,0.1546038,0.9840678,-10.49099,0,0,28.95449,1,1,1000,1000
43525,55:43.8,IMU,68045271,0,-0.08215127,-0.0997126,-1.163612,0.1065446,1.010264,-10.50547,0,0,28.95663,1,1,1000,1000
43576,55:43.9,IMU,68085255,0,-0.08008124,-0.1030027,-1.147605,0.05945714,1.029584,-10.51882,0,0,28.95877,1,1,1000,1000
43629,55:43.9,IMU,68125239,0,-0.07742719,-0.1028987,-1.132145,0.01335878,1.045115,-10.53843,0,0,28.96091,1,1,1000,1000
43728,55:44.0,IMU,68165223,0,-0.07273619,-0.1085206,-1.117678,-0.03103439,1.057786,-10.55635,0,0,28.96299,1,1,1000,1000
43782,55:44.0,IMU,68205207,0,-0.06816821,-0.1091481,-1.104084,-0.07937889,1.066162,-10.57559,0,0,28.96513,1,1,1000,1000
43880,55:44.0,IMU,68245191,0,-0.06483793,-0.1074554,-1.091322,-0.1313417,1.07092,-10.59681,0,0,28.96727,1,1,1000,1000
43932,55:44.1,IMU,68285175,0,-0.05610488,-0.1039975,-1.080056,-0.1841958,1.07061,-10.61514,0,0,28.96941,1,1,1000,1000
43984,55:44.1,IMU,68325159,0,-0.0498984,-0.09854761,-1.070226,-0.2410729,1.067485,-10.63052,0,0,28.97154,1,1,1000,1000
44083,55:44.2,IMU,68365143,0,-0.04086449,-0.09069034,-1.061849,-0.3002674,1.057245,-10.64556,0,0,28.97368,1,1,1000,1000
44139,55:44.2,IMU,68405127,0,-0.03015062,-0.08013839,-1.054852,-0.3613021,1.046194,-10.66287,0,0,28.97582,1,1,1000,1000
44239,55:44.2,IMU,68445111,0,-0.02309416,-0.06598369,-1.049451,-0.4242311,1.028489,-10.66637,0,0,28.97795,1,1,1000,1000
44292,55:44.3,IMU,68485095,0,-0.01887926,-0.05609123,-1.043502,-0.4892294,1.007697,-10.67271,0,0,28.98009,1,1,1000,1000
44345,55:44.3,IMU,68525079,0,-0.01195353,-0.04723908,-1.026188,-0.5575094,0.9840183,-10.67551,0,0,28.98223,1,1,1000,1000
44446,55:44.4,IMU,68565063,0,-0.007162508,-0.03972647,-0.9865439,-0.6269945,0.95724,-10.67405,0,0,28.98442,1,1,1000,1000
44502,55:44.4,IMU,68605047,0,-0.001848529,-0.02777151,-0.9201773,-0.6932595,0.928058,-10.67146,0,0,28.98655,1,1,1000,1000
44600,55:44.4,IMU,68645031,0,0.000897217,-0.01922378,-0.8306291,-0.7576059,0.896376,-10.66182,0,0,28.98869,1,1,1000,1000
44651,55:44.5,IMU,68685015,0,0.00260067,-0.01301246,-0.7236513,-0.816447,0.8689179,-10.65656,0,0,28.99082,1,1,1000,1000
44703,55:44.5,IMU,68724999,0,0.003656504,-0.004066424,-0.6066971,-0.8704584,0.8411975,-10.64352,0,0,28.9929,1,1,1000,1000
44802,55:44.6,IMU,68764983,0,0.005347274,0.005913582,-0.4868749,-0.9197307,0.8175244,-10.62962,0,0,28.99504,1,1,1000,1000
44856,55:44.6,IMU,68804967,0,0.005932484,0.01618242,-0.3701041,-0.9656414,0.7967091,-10.60938,0,0,28.99717,1,1,1000,1000
44954,55:44.6,IMU,68844951,0,0.005317066,0.0245948,-0.2615051,-1.007265,0.7833531,-10.59307,0,0,28.9993,1,1,1000,1000
45006,55:44.7,IMU,68884935,0,0.00324243,0.02824261,-0.1640535,-1.042979,0.7740428,-10.56686,0,0,29.00144,1,1,1000,1000
45058,55:44.7,IMU,68924919,0,0.002010659,0.0312438,-0.08007034,-1.074544,0.7670536,-10.54431,0,0,29.00357,1,1,1000,1000
45157,55:44.8,IMU,68964903,0,0.001527378,0.03201966,-0.01066034,-1.103896,0.7645321,-10.51838,0,0,29.0057,1,1,1000,1000
45211,55:44.8,IMU,69004887,0,0.00061627,0.03242879,0.04447051,-1.130581,0.7656394,-10.49796,0,0,29.00784,1,1,1000,1000
45311,55:44.8,IMU,69044871,0,9.549646e-05,0.03103169,0.08551677,-1.153009,0.7676681,-10.47235,0,0,29.00997,1,1,1000,1000
45362,55:44.9,IMU,69084855,0,-0.00334715,0.02947665,0.1139998,-1.174591,0.7722701,-10.44829,0,0,29.0121,1,1,1000,1000
45415,55:44.9,IMU,69124839,0,-0.005797117,0.02686171,0.1312904,-1.193522,0.779529,-10.42599,0,0,29.01423,1,1,1000,1000
45514,55:45.0,IMU,69164823,0,-0.005885555,0.02515803,0.1390235,-1.210222,0.7860088,-10.40226,0,0,29.01636,1,1,1000,1000
45568,55:45.0,IMU,69204807,0,-0.005105141,0.02397417,0.1391176,-1.22671,0.7946927,-10.37881,0,0,29.01849,1,1,1000,1000
45666,55:45.0,IMU,69244791,0,-0.005129465,0.02244396,0.1333733,-1.243345,0.8020205,-10.35698,0,0,29.02062,1,1,1000,1000
45718,55:45.1,IMU,69284775,0,-0.007852824,0.02075105,0.123199,-1.260273,0.8084793,-10.33402,0,0,29.02275,1,1,1000,1000
45770,55:45.1,IMU,69324759,0,-0.008189548,0.01937475,0.1102332,-1.276797,0.8153539,-10.31133,0,0,29.02489,1,1,1000,1000
45869,55:45.2,IMU,69364743,0,-0.009126943,0.01817081,0.09549914,-1.291855,0.8220779,-10.29122,0,0,29.02701,1,1,1000,1000
45925,55:45.2,IMU,69404727,0,-0.007456792,0.01713386,0.0799704,-1.309675,0.8265672,-10.2689,0,0,29.02914,1,1,1000,1000
46025,55:45.2,IMU,69444711,0,-0.005732177,0.01320833,0.06460538,-1.326238,0.8327372,-10.25423,0,0,29.03127,1,1,1000,1000
46078,55:45.3,IMU,69484695,0,-0.008967925,0.01483777,0.05017991,-1.342314,0.8370646,-10.23459,0,0,29.0334,1,1,1000,1000
46130,55:45.3,IMU,69524679,0,-0.01147088,0.0148977,0.0372078,-1.360891,0.8407607,-10.21406,0,0,29.03553,1,1,1000,1000
46231,55:45.4,IMU,69564663,0,-0.01032189,0.01543354,0.02567543,-1.378,0.8439854,-10.1948,0,0,29.03766,1,1,1000,1000
46287,55:45.4,IMU,69604647,0,-0.009071567,0.01478269,0.01556838,-1.394844,0.8445033,-10.1626,0,0,29.03979,1,1,1000,1000
46385,55:45.4,IMU,69644631,0,-0.007949792,0.01621286,0.007263202,-1.414161,0.8476025,-10.15405,0,0,29.04192,1,1,1000,1000
46436,55:45.5,IMU,69684615,0,-0.008696235,0.01708566,0.000723244,-1.431969,0.8490301,-10.13515,0,0,29.04404,1,1,1000,1000
46488,55:45.5,IMU,69724599,0,-0.009911424,0.01737558,-0.004301046,-1.447221,0.849971,-10.11507,0,0,29.04617,1,1,1000,1000
46587,55:45.6,IMU,69764583,0,-0.01119761,0.01468745,-0.007943177,-1.46783,0.8503207,-10.09345,0,0,29.0483,1,1,1000,1000
46641,55:45.6,IMU,69805400,0,-0.00812754,0.01507711,-0.01048111,-1.483994,0.8516246,-10.07866,0,0,29.05048,1,1,1000,1000
46739,55:45.6,IMU,69845384,0,-0.006940177,0.02099499,-0.01139494,-1.500246,0.8510203,-10.0528,0,0,29.0526,1,1,1000,1000
46791,55:45.7,IMU,69885368,0,-0.006049611,0.0204996,-0.01187388,-1.518816,0.8521554,-10.03529,0,0,29.05473,1,1,1000,1000
46844,55:45.7,IMU,69925352,0,-0.008201797,0.02131427,-0.0114627,-1.534548,0.8523816,-10.01435,0,0,29.05685,1,1,1000,1000
46944,55:45.8,IMU,69965336,0,-0.008867169,0.0174958,-0.01104454,-1.550865,0.8540012,-9.99219,0,0,29.05898,1,1,1000,1000
46998,55:45.8,IMU,70005320,0,-0.007995585,0.01529606,-0.01009974,-1.566027,0.8555703,-9.977653,0,0,29.06111,1,1,1000,1000
47098,55:45.8,IMU,70045304,0,-0.008814923,0.01913353,-0.00886337,-1.580472,0.8545023,-9.960205,0,0,29.06323,1,1,1000,1000
47149,55:45.9,IMU,70085288,0,-0.007636248,0.02074062,-0.007465838,-1.594654,0.8557363,-9.945561,0,0,29.06536,1,1,1000,1000
47202,55:45.9,IMU,70125272,0,-0.009624405,0.0208892,-0.005953846,-1.610257,0.8570986,-9.927685,0,0,29.06748,1,1,1000,1000
47301,55:46.0,IMU,70165256,0,-0.01192926,0.02461738,-0.004432034,-1.622045,0.8596138,-9.909278,0,0,29.0696,1,1,1000,1000
47355,55:46.0,IMU,70205240,0,-0.01319238,0.02173187,-0.002945939,-1.636133,0.859632,-9.889159,0,0,29.07173,1,1,1000,1000
47453,55:46.0,IMU,70245224,0,-0.009158407,0.01951176,-0.001848695,-1.649145,0.8613828,-9.876681,0,0,29.0738,1,1,1000,1000
47504,55:46.1,IMU,70285208,0,-0.01141226,0.02391304,-0.000626805,-1.661663,0.8623771,-9.859292,0,0,29.07592,1,1,1000,1000
47556,55:46.1,IMU,70325192,0,-0.01235169,0.02979069,0.000265263,-1.672766,0.8634987,-9.840299,0,0,29.07804,1,1,1000,1000
47655,55:46.2,IMU,70365176,0,-0.01192257,0.03047098,0.001053901,-1.683977,0.8658515,-9.829493,0,0,29.08017,1,1,1000,1000
47710,55:46.2,IMU,70405160,0,-0.009516506,0.02917711,0.001770581,-1.696632,0.8682618,-9.81431,0,0,29.08229,1,1,1000,1000
47811,55:46.2,IMU,70445144,0,-0.009435697,0.03311514,0.002195241,-1.707165,0.8701916,-9.795641,0,0,29.08441,1,1,1000,1000
47864,55:46.3,IMU,70485128,0,-0.008525145,0.03725513,0.00267608,-1.71925,0.8715537,-9.777236,0,0,29.08653,1,1,1000,1000
47916,55:46.3,IMU,70525112,0,-0.007292562,0.03827228,0.002870607,-1.728533,0.8731055,-9.759108,0,0,29.08866,1,1,1000,1000
48017,55:46.4,IMU,70565096,0,-0.006130567,0.04181753,0.002953746,-1.738836,0.8763528,-9.74649,0,0,29.09078,1,1,1000,1000
48071,55:46.4,IMU,70605080,0,-0.006301953,0.03984209,0.003142314,-1.747466,0.8785836,-9.729608,0,0,29.0929,1,1,1000,1000
48172,55:46.4,IMU,70645064,0,-0.006616135,0.04176837,0.00312945,-1.755544,0.8805813,-9.707025,0,0,29.09507,1,1,1000,1000
48223,55:46.5,IMU,70685048,0,-0.009026648,0.049958,0.003386441,-1.764939,0.8822392,-9.692839,0,0,29.09719,1,1,1000,1000
48275,55:46.5,IMU,70725032,0,-0.008961553,0.05193426,0.003471337,-1.773745,0.8852049,-9.681176,0,0,29.09931,1,1,1000,1000
48376,55:46.6,IMU,70765016,0,-0.009320891,0.05051603,0.003512384,-1.780923,0.887192,-9.660544,0,0,29.10143,1,1,1000,1000
48430,55:46.6,IMU,70805000,0,-0.007611915,0.05047745,0.003394037,-1.788551,0.8900632,-9.649013,0,0,29.10355,1,1,1000,1000
48528,55:46.6,IMU,70844984,0,-0.01037739,0.04851995,0.00343419,-1.794365,0.8902742,-9.630686,0,0,29.10562,1,1,1000,1000
48579,55:46.7,IMU,70884968,0,-0.009514621,0.05021274,0.003349935,-1.801826,0.8931364,-9.619741,0,0,29.10774,1,1,1000,1000
48632,55:46.7,IMU,70924952,0,-0.009614059,0.04786941,0.003286612,-1.806144,0.8949438,-9.598725,0,0,29.10986,1,1,1000,1000
48731,55:46.8,IMU,70964936,0,-0.008340154,0.03782059,0.003095549,-1.811127,0.8994703,-9.595105,0,0,29.11198,1,1,1000,1000
48785,55:46.8,IMU,71004920,0,-0.00827276,0.02364079,0.002789918,-1.81393,0.9001814,-9.5748,0,0,29.11409,1,1,1000,1000
48887,55:46.8,IMU,71044904,0,-0.007226271,0.01227817,0.00220077,-1.81735,0.9025037,-9.573471,0,0,29.11621,1,1,1000,1000
48938,55:46.9,IMU,71084888,0,-0.006336632,0.004317529,0.001867908,-1.817843,0.9058658,-9.577024,0,0,29.11833,1,1,1000,1000
48991,55:46.9,IMU,71124872,0,-0.009359575,-0.005620619,0.001585514,-1.821467,0.9087891,-9.571306,0,0,29.12045,1,1,1000,1000
49090,55:47.0,IMU,71164856,0,-0.01038744,-0.01200087,0.00145617,-1.821063,0.9104955,-9.558937,0,0,29.12256,1,1,1000,1000
49144,55:47.0,IMU,71204840,0,-0.009776855,-0.01227716,0.001161978,-1.82171,0.9134694,-9.561309,0,0,29.12468,1,1,1000,1000
49242,55:47.0,IMU,71244824,0,-0.01037767,-0.01075425,0.000885763,-1.823075,0.9164659,-9.559535,0,0,29.1268,1,1,1000,1000
49294,55:47.1,IMU,71284808,0,-0.01112024,-0.001153444,0.000952035,-1.825041,0.9199849,-9.552362,0,0,29.12891,1,1,1000,1000
49346,55:47.1,IMU,71324792,0,-0.01107725,0.0114374,0.001209332,-1.827029,0.920398,-9.547866,0,0,29.13103,1,1,1000,1000
49445,55:47.2,IMU,71364776,0,-0.01074909,0.02502227,0.001319949,-1.830127,0.9241898,-9.547812,0,0,29.13315,1,1,1000,1000
49499,55:47.2,IMU,71404760,0,-0.006433472,0.0410649,0.001377086,-1.832898,0.9276751,-9.534204,0,0,29.13526,1,1,1000,1000
49601,55:47.2,IMU,71444744,0,-0.007379435,0.05376475,0.001849108,-1.836567,0.9290887,-9.526982,0,0,29.13738,1,1,1000,1000
49654,55:47.3,IMU,71484728,0,-0.009243095,0.06823651,0.002462826,-1.840282,0.9315681,-9.5168,0,0,29.13949,1,1,1000,1000
49706,55:47.3,IMU,71524712,0,-0.01094574,0.07170732,0.002881479,-1.845226,0.9343833,-9.511629,0,0,29.14161,1,1,1000,1000
49807,55:47.4,IMU,71564696,0,-0.01167386,0.08148083,0.003610065,-1.847927,0.9354322,-9.489155,0,0,29.14372,1,1,1000,1000
49861,55:47.4,IMU,71604680,0,-0.009155574,0.08433539,0.003992471,-1.850561,0.9382443,-9.486597,0,0,29.14583,1,1,1000,1000
49961,55:47.4,IMU,71644664,0,-0.01075344,0.08842497,0.004494258,-1.853871,0.9415618,-9.472338,0,0,29.14795,1,1,1000,1000
50012,55:47.5,IMU,71684648,0,-0.01186127,0.09498407,0.00517802,-1.852743,0.9431047,-9.45429,0,0,29.15006,1,1,1000,1000
50064,55:47.5,IMU,71724632,0,-0.00761419,0.101101,0.005478394,-1.854617,0.9448817,-9.441112,0,0,29.15218,1,1,1000,1000
50163,55:47.6,IMU,71764616,0,-0.002357914,0.09922817,0.005813638,-1.855995,0.9479147,-9.430226,0,0,29.15429,1,1,1000,1000
50217,55:47.6,IMU,71804600,0,0.01018763,0.1000828,0.006069703,-1.855318,0.9528002,-9.42488,0,0,29.1564,1,1,1000,1000
50315,55:47.6,IMU,71844584,0,0.02137011,0.1024168,0.00680055,-1.854247,0.9566383,-9.409163,0,0,29.15851,1,1,1000,1000
50366,55:47.7,IMU,71885401,0,0.03459138,0.1040247,0.007999116,-1.850485,0.9589165,-9.396223,0,0,29.16068,1,1,1000,1000
50418,55:47.7,IMU,71925385,0,0.04739327,0.1090059,0.01001623,-1.847851,0.9668516,-9.393124,0,0,29.16279,1,1,1000,1000
50519,55:47.8,IMU,71965369,0,0.06297718,0.1084421,0.01287974,-1.843004,0.9702399,-9.37681,0,0,29.1649,1,1,1000,1000
50573,55:47.8,IMU,72005353,0,0.07817684,0.1066542,0.01670168,-1.837776,0.9761686,-9.369987,0,0,29.16701,1,1,1000,1000
50673,55:47.8,IMU,72045337,0,0.08526355,0.1067017,0.02178523,-1.830032,0.9813643,-9.360979,0,0,29.16912,1,1,1000,1000
50724,55:47.9,IMU,72085321,0,0.09379695,0.109193,0.027923,-1.823121,0.9874057,-9.351372,0,0,29.17123,1,1,1000,1000
50776,55:47.9,IMU,72125305,0,0.1009363,0.1098877,0.03499402,-1.814042,0.9929003,-9.342759,0,0,29.17334,1,1,1000,1000
50876,55:48.0,IMU,72165289,0,0.1065231,0.1104814,0.04276964,-1.803376,0.9979433,-9.336151,0,0,29.17545,1,1,1000,1000
50930,55:48.0,IMU,72205273,0,0.1117959,0.1110555,0.05162811,-1.791773,1.005655,-9.331723,0,0,29.17756,1,1,1000,1000
51028,55:48.0,IMU,72245257,0,0.1133851,0.1129125,0.06120653,-1.778708,1.010047,-9.322674,0,0,29.17967,1,1,1000,1000
51079,55:48.1,IMU,72285241,0,0.1131675,0.1168259,0.07154991,-1.765325,1.016117,-9.317356,0,0,29.18178,1,1,1000,1000
51131,55:48.1,IMU,72325225,0,0.1125992,0.1184052,0.08203541,-1.750601,1.02092,-9.310752,0,0,29.18384,1,1,1000,1000
51230,55:48.2,IMU,72365209,0,0.1132113,0.1175663,0.09312398,-1.732438,1.026471,-9.307561,0,0,29.18595,1,1,1000,1000
51284,55:48.2,IMU,72405193,0,0.1146747,0.1184883,0.1044804,-1.715106,1.032248,-9.302763,0,0,29.18806,1,1,1000,1000
51385,55:48.2,IMU,72445177,0,0.1161225,0.1219094,0.1163365,-1.694069,1.037491,-9.298337,0,0,29.19016,1,1,1000,1000
51440,55:48.3,IMU,72485161,0,0.117177,0.1269521,0.1284432,-1.674282,1.042893,-9.29558,0,0,29.19227,1,1,1000,1000
51493,55:48.3,IMU,72525145,0,0.1192235,0.1297556,0.1407554,-1.651106,1.049287,-9.289594,0,0,29.19438,1,1,1000,1000
51594,55:48.4,IMU,72565129,0,0.1216568,0.1316525,0.1533499,-1.626932,1.053177,-9.288013,0,0,29.19649,1,1,1000,1000
51649,55:48.4,IMU,72605113,0,0.123557,0.1323253,0.1663021,-1.602306,1.059478,-9.288399,0,0,29.19859,1,1,1000,1000
51748,55:48.4,IMU,72645097,0,0.122351,0.1349944,0.1796733,-1.575675,1.063337,-9.289502,0,0,29.2007,1,1,1000,1000
51800,55:48.5,IMU,72685081,0,0.1254251,0.1381733,0.1933239,-1.547551,1.067704,-9.282858,0,0,29.20281,1,1,1000,1000
51852,55:48.5,IMU,72725065,0,0.127436,0.1403114,0.2071748,-1.519441,1.074118,-9.280138,0,0,29.20497,1,1,1000,1000
51951,55:48.6,IMU,72765049,0,0.1297364,0.1438719,0.2218001,-1.488291,1.077352,-9.287374,0,0,29.20707,1,1,1000,1000
52005,55:48.6,IMU,72805033,0,0.132121,0.1431392,0.2366568,-1.456241,1.083371,-9.277937,0,0,29.20918,1,1,1000,1000
52103,55:48.6,IMU,72845017,0,0.134428,0.1435555,0.2521214,-1.423702,1.086283,-9.285954,0,0,29.21128,1,1,1000,1000
52154,55:48.7,IMU,72885001,0,0.1379127,0.1457543,0.2682523,-1.389958,1.090456,-9.281124,0,0,29.21339,1,1,1000,1000
52206,55:48.7,IMU,72924985,0,0.1412359,0.1470931,0.2851461,-1.353584,1.093029,-9.278833,0,0,29.21544,1,1,1000,1000
52305,55:48.8,IMU,72964969,0,0.1431247,0.1463377,0.3028444,-1.315958,1.098132,-9.287303,0,0,29.21754,1,1,1000,1000
52360,55:48.8,IMU,73004953,0,0.1483367,0.1454923,0.3212835,-1.277725,1.100805,-9.285954,0,0,29.21965,1,1,1000,1000
52460,55:48.8,IMU,73044937,0,0.1509273,0.1458801,0.3406593,-1.238031,1.10278,-9.291151,0,0,29.22175,1,1,1000,1000
52511,55:48.9,IMU,73084921,0,0.1548611,0.147775,0.3610822,-1.197218,1.106708,-9.299798,0,0,29.22386,1,1,1000,1000
52563,55:48.9,IMU,73124905,0,0.1587201,0.148026,0.3825184,-1.155261,1.107279,-9.298706,0,0,29.22596,1,1,1000,1000
52663,55:49.0,IMU,73164889,0,0.162656,0.1469519,0.405172,-1.112733,1.108404,-9.304311,0,0,29.22806,1,1,1000,1000
52717,55:49.0,IMU,73204873,0,0.1663679,0.1448765,0.4286345,-1.068511,1.109316,-9.308132,0,0,29.23017,1,1,1000,1000
52815,55:49.0,IMU,73244857,0,0.1716286,0.1443156,0.453411,-1.024322,1.108436,-9.314753,0,0,29.23227,1,1,1000,1000
52867,55:49.1,IMU,73284841,0,0.1765174,0.1451518,0.4795375,-0.9780487,1.105463,-9.319246,0,0,29.23437,1,1,1000,1000
52919,55:49.1,IMU,73324825,0,0.1816721,0.1437349,0.5068344,-0.930537,1.104843,-9.32427,0,0,29.23647,1,1,1000,1000
53018,55:49.2,IMU,73364809,0,0.1864725,0.1402535,0.5353718,-0.8832515,1.102253,-9.330233,0,0,29.23857,1,1,1000,1000
53072,55:49.2,IMU,73404793,0,0.1902728,0.1339099,0.5651885,-0.8367906,1.097356,-9.335281,0,0,29.24067,1,1,1000,1000
53173,55:49.2,IMU,73444777,0,0.1941477,0.125182,0.596228,-0.7871653,1.092084,-9.345158,0,0,29.24278,1,1,1000,1000
53227,55:49.3,IMU,73484761,0,0.1969076,0.1165917,0.6283936,-0.7383235,1.086116,-9.35494,0,0,29.24488,1,1,1000,1000
53279,55:49.3,IMU,73524745,0,0.1975428,0.1012378,0.6614933,-0.6890625,1.076247,-9.367066,0,0,29.24698,1,1,1000,1000
53380,55:49.4,IMU,73564729,0,0.1960372,0.08200394,0.6953408,-0.6398638,1.066038,-9.380972,0,0,29.24908,1,1,1000,1000
53434,55:49.4,IMU,73604713,0,0.1954006,0.05867761,0.729521,-0.5915923,1.053698,-9.395121,0,0,29.25118,1,1,1000,1000
53533,55:49.4,IMU,73644697,0,0.192639,0.04096697,0.7638942,-0.5428212,1.039804,-9.411222,0,0,29.25328,1,1,1000,1000
53585,55:49.5,IMU,73684681,0,0.1890385,0.02336356,0.7976806,-0.4949035,1.024763,-9.426709,0,0,29.25538,1,1,1000,1000
53638,55:49.5,IMU,73724665,0,0.1850826,0.006854245,0.8306389,-0.4507843,1.006744,-9.446884,0,0,29.25748,1,1,1000,1000
53737,55:49.6,IMU,73764649,0,0.176731,-0.009708663,0.861945,-0.4063608,0.9864548,-9.467287,0,0,29.25957,1,1,1000,1000
53791,55:49.6,IMU,73804633,0,0.1696817,-0.03312501,0.8908237,-0.3655221,0.9641825,-9.479341,0,0,29.26167,1,1,1000,1000
53889,55:49.6,IMU,73844617,0,0.160668,-0.05363772,0.9168846,-0.3229014,0.9403664,-9.502933,0,0,29.26377,1,1,1000,1000
53943,55:49.7,IMU,73884601,0,0.1495948,-0.07325543,0.9397147,-0.2852705,0.9137692,-9.524828,0,0,29.26587,1,1,1000,1000
53995,55:49.7,IMU,73924585,0,0.1376929,-0.09401175,0.9583449,-0.2493288,0.8858924,-9.544151,0,0,29.26797,1,1,1000,1000
54095,55:49.8,IMU,73965402,0,0.1245393,-0.1134035,0.9727116,-0.2178906,0.853562,-9.571869,0,0,29.27012,1,1,1000,1000
54150,55:49.8,IMU,74005386,0,0.1090772,-0.1280022,0.9816851,-0.1873223,0.8241191,-9.595404,0,0,29.27221,1,1,1000,1000
54250,55:49.8,IMU,74045370,0,0.09716669,-0.1402819,0.9853138,-0.1605827,0.7919555,-9.6191,0,0,29.27431,1,1,1000,1000
54301,55:49.9,IMU,74085354,0,0.08931719,-0.1502173,0.9833558,-0.1382017,0.7582653,-9.64562,0,0,29.27641,1,1,1000,1000
54353,55:49.9,IMU,74125338,0,0.08002238,-0.1584443,0.9759049,-0.1172106,0.7245294,-9.666262,0,0,29.27851,1,1,1000,1000
54453,55:50.0,IMU,74165322,0,0.07079235,-0.167221,0.9628887,-0.1000361,0.6896919,-9.690333,0,0,29.2806,1,1,1000,1000
54507,55:50.0,IMU,74205306,0,0.0602907,-0.1741628,0.9446003,-0.08601872,0.6562347,-9.714864,0,0,29.2827,1,1,1000,1000
54605,55:50.0,IMU,74245290,0,0.05219152,-0.1784315,0.921473,-0.07581271,0.6210249,-9.74148,0,0,29.28479,1,1,1000,1000
54656,55:50.1,IMU,74285274,0,0.04514766,-0.17762,0.8937603,-0.06811974,0.5878351,-9.767005,0,0,29.28689,1,1,1000,1000
54708,55:50.1,IMU,74325258,0,0.0369943,-0.1737885,0.8620906,-0.06312368,0.5561121,-9.790528,0,0,29.28898,1,1,1000,1000
54807,55:50.2,IMU,74365242,0,0.0256499,-0.1675986,0.8269359,-0.06063824,0.5245908,-9.815166,0,0,29.29108,1,1,1000,1000
54861,55:50.2,IMU,74405226,0,0.01391412,-0.1589878,0.7896736,-0.06049351,0.4953446,-9.840464,0,0,29.29312,1,1,1000,1000
54962,55:50.2,IMU,74445210,0,0.004739359,-0.1489126,0.7493365,-0.06490642,0.4669259,-9.865199,0,0,29.29521,1,1,1000,1000
55016,55:50.3,IMU,74485194,0,-0.002884598,-0.132024,0.7074076,-0.06980966,0.4394885,-9.885383,0,0,29.29731,1,1,1000,1000
55069,55:50.3,IMU,74525178,0,-0.01129512,-0.1154036,0.6644128,-0.07906908,0.4139193,-9.905984,0,0,29.2994,1,1,1000,1000
55170,55:50.4,IMU,74565162,0,-0.01975985,-0.1029196,0.6210682,-0.08865894,0.3895991,-9.921302,0,0,29.30149,1,1,1000,1000
55225,55:50.4,IMU,74605146,0,-0.02697689,-0.09307753,0.5778053,-0.1008376,0.3648063,-9.937218,0,0,29.30359,1,1,1000,1000
55324,55:50.4,IMU,74645130,0,-0.03109712,-0.08404465,0.5355901,-0.1155385,0.3443158,-9.954728,0,0,29.30568,1,1,1000,1000
55376,55:50.5,IMU,74685114,0,-0.03444872,-0.07763362,0.4946495,-0.1310271,0.3239625,-9.960571,0,0,29.30777,1,1,1000,1000
55428,55:50.5,IMU,74725098,0,-0.03631797,-0.07251953,0.45559,-0.1491103,0.3051316,-9.978103,0,0,29.30986,1,1,1000,1000
55527,55:50.6,IMU,74765082,0,-0.04113027,-0.07098052,0.4188198,-0.1668818,0.2863437,-9.990458,0,0,29.31196,1,1,1000,1000
55583,55:50.6,IMU,74805066,0,-0.04695186,-0.06840774,0.3843958,-0.1869826,0.2720757,-10.00269,0,0,29.3141,1,1,1000,1000
55681,55:50.6,IMU,74845050,0,-0.04582851,-0.06387818,0.3523684,-0.2082748,0.2553207,-10.00934,0,0,29.31619,1,1,1000,1000
55732,55:50.7,IMU,74885034,0,-0.04554349,-0.06065364,0.3232244,-0.2315896,0.2388291,-10.01597,0,0,29.31828,1,1,1000,1000
55784,55:50.7,IMU,74925018,0,-0.05074999,-0.05790484,0.2963285,-0.2557164,0.2267002,-10.03429,0,0,29.32037,1,1,1000,1000
55883,55:50.8,IMU,74965002,0,-0.05073033,-0.05763391,0.2721125,-0.2801548,0.2140323,-10.03676,0,0,29.32246,1,1,1000,1000
55937,55:50.8,IMU,75004986,0,-0.05417735,-0.05898183,0.250031,-0.3061544,0.2020711,-10.04164,0,0,29.3245,1,1,1000,1000
56038,55:50.8,IMU,75044970,0,-0.05811879,-0.06059568,0.2302199,-0.3318063,0.1909313,-10.04884,0,0,29.32659,1,1,1000,1000
56089,55:50.9,IMU,75084954,0,-0.05841066,-0.06297931,0.2124729,-0.3582809,0.1805846,-10.06112,0,0,29.32868,1,1,1000,1000
56141,55:50.9,IMU,75124938,0,-0.06088498,-0.0619145,0.1964162,-0.3882513,0.1691274,-10.06783,0,0,29.33077,1,1,1000,1000
56241,55:51.0,IMU,75164922,0,-0.06117717,-0.0590296,0.1820408,-0.4180096,0.1597114,-10.07969,0,0,29.33286,1,1,1000,1000
56295,55:51.0,IMU,75204906,0,-0.06232189,-0.06115306,0.1690761,-0.445515,0.1509168,-10.08129,0,0,29.33495,1,1,1000,1000
56393,55:51.0,IMU,75244890,0,-0.067776,-0.06164274,0.1572138,-0.4768997,0.1429848,-10.09379,0,0,29.33704,1,1,1000,1000
56445,55:51.1,IMU,75284874,0,-0.06556422,-0.06358843,0.1463252,-0.5074619,0.1352751,-10.09536,0,0,29.33912,1,1,1000,1000
56497,55:51.1,IMU,75324858,0,-0.0658572,-0.06231014,0.1365075,-0.5395426,0.1274322,-10.09677,0,0,29.34121,1,1,1000,1000
56596,55:51.2,IMU,75364842,0,-0.06963069,-0.06497526,0.1270509,-0.5708034,0.1204431,-10.11503,0,0,29.3433,1,1,1000,1000
56650,55:51.2,IMU,75404826,0,-0.0721117,-0.06447625,0.1183931,-0.6034551,0.114944,-10.11865,0,0,29.34539,1,1,1000,1000
56751,55:51.2,IMU,75444810,0,-0.07388536,-0.0640656,0.1100093,-0.6359936,0.1082326,-10.12363,0,0,29.34748,1,1,1000,1000
56804,55:51.3,IMU,75484794,0,-0.07479815,-0.06656667,0.1024042,-0.6708251,0.1024616,-10.13794,0,0,29.34956,1,1,1000,1000
56856,55:51.3,IMU,75524778,0,-0.07463431,-0.0674233,0.0947857,-0.7040776,0.09868386,-10.13803,0,0,29.35165,1,1,1000,1000
56958,55:51.4,IMU,75564762,0,-0.0797904,-0.0674686,0.08776124,-0.7386004,0.09149787,-10.14932,0,0,29.35373,1,1,1000,1000
57012,55:51.4,IMU,75604746,0,-0.07979456,-0.06713601,0.08088601,-0.7737528,0.0877884,-10.1486,0,0,29.35582,1,1,1000,1000
57111,55:51.4,IMU,75644730,0,-0.08273664,-0.06766862,0.07427888,-0.8094465,0.08449531,-10.16399,0,0,29.35791,1,1,1000,1000
57163,55:51.5,IMU,75684714,0,-0.08040886,-0.07650237,0.06775008,-0.8441734,0.08021344,-10.16558,0,0,29.35999,1,1,1000,1000
57215,55:51.5,IMU,75724698,0,-0.08266737,-0.07450892,0.06161434,-0.8810658,0.07577034,-10.18027,0,0,29.36208,1,1,1000,1000
57314,55:51.6,IMU,75764682,0,-0.08303343,-0.07340964,0.05545291,-0.9174473,0.073683,-10.18218,0,0,29.36416,1,1,1000,1000
57368,55:51.6,IMU,75804666,0,-0.0856763,-0.07090778,0.04941865,-0.9523425,0.0705845,-10.1921,0,0,29.36625,1,1,1000,1000
57466,55:51.6,IMU,75844650,0,-0.08472545,-0.06298786,0.04356475,-0.9917009,0.06677236,-10.20188,0,0,29.36833,1,1,1000,1000
57517,55:51.7,IMU,75884634,0,-0.08512476,-0.05403047,0.03797475,-1.028812,0.06473666,-10.20933,0,0,29.37041,1,1,1000,1000
57569,55:51.7,IMU,75924618,0,-0.08323407,-0.04032971,0.03236306,-1.066008,0.06297909,-10.21371,0,0,29.3725,1,1,1000,1000
57669,55:51.8,IMU,75964602,0,-0.08116976,-0.02761492,0.02687145,-1.105479,0.06239182,-10.21319,0,0,29.37458,1,1,1000,1000
57723,55:51.8,IMU,76004586,0,-0.07469671,-0.01549336,0.02151018,-1.142939,0.06022088,-10.21579,0,0,29.37667,1,1,1000,1000
57826,55:51.8,IMU,76045403,0,-0.06342414,-0.001103987,0.01628392,-1.185182,0.05919702,-10.20602,0,0,29.3788,1,1,1000,1000
57877,55:51.9,IMU,76085387,0,-0.04777018,0.01420699,0.01172014,-1.22252,0.05706127,-10.19038,0,0,29.38088,1,1,1000,1000
57929,55:51.9,IMU,76125371,0,-0.03219887,0.02024307,0.007375197,-1.261582,0.0571716,-10.18221,0,0,29.38297,1,1,1000,1000
58028,55:52.0,IMU,76165355,0,-0.02009796,0.02185456,0.003596565,-1.299259,0.05742027,-10.16595,0,0,29.38505,1,1,1000,1000
58083,55:52.0,IMU,76205339,0,-0.01057923,0.02026171,0.000254821,-1.337254,0.05616079,-10.14492,0,0,29.38713,1,1,1000,1000
58181,55:52.0,IMU,76245323,0,-0.000933986,0.01873249,-0.002676197,-1.373945,0.05605295,-10.12928,0,0,29.38921,1,1,1000,1000
58233,55:52.1,IMU,76285307,0,0.004705347,0.02020639,-0.004776487,-1.410838,0.05583968,-10.10966,0,0,29.39129,1,1,1000,1000
58285,55:52.1,IMU,76325291,0,0.008073436,0.02212946,-0.006411172,-1.446244,0.05556307,-10.08762,0,0,29.39337,1,1,1000,1000
58384,55:52.2,IMU,76365275,0,0.009305281,0.02001646,-0.00758758,-1.482264,0.05532299,-10.07464,0,0,29.39545,1,1,1000,1000
58438,55:52.2,IMU,76405259,0,0.008632758,0.01896265,-0.008102983,-1.51606,0.05510142,-10.04775,0,0,29.39754,1,1,1000,1000
58539,55:52.2,IMU,76445243,0,0.01095505,0.01713721,-0.008138254,-1.551263,0.05590987,-10.041,0,0,29.39962,1,1,1000,1000
58592,55:52.3,IMU,76485227,0,0.01020129,0.0136652,-0.007784399,-1.583723,0.05484763,-10.01056,0,0,29.40164,1,1,1000,1000
58644,55:52.3,IMU,76525211,0,0.009672778,0.006777889,-0.007395711,-1.615952,0.05462161,-9.99401,0,0,29.40372,1,1,1000,1000
58746,55:52.4,IMU,76565195,0,0.007587675,0.006348497,-0.006957165,-1.64754,0.05433394,-9.980722,0,0,29.4058,1,1,1000,1000
58801,55:52.4,IMU,76605179,0,0.004832695,0.00569106,-0.006374665,-1.68005,0.05302092,-9.957171,0,0,29.40788,1,1,1000,1000
58900,55:52.4,IMU,76645163,0,0.004041855,0.009138564,-0.00536746,-1.710811,0.05200745,-9.939653,0,0,29.40996,1,1,1000,1000
58951,55:52.5,IMU,76685147,0,0.00365347,0.008103039,-0.004509468,-1.742019,0.05193952,-9.927499,0,0,29.41204,1,1,1000,1000
59004,55:52.5,IMU,76725131,0,0.004181933,0.007445725,-0.003812992,-1.770969,0.05139244,-9.913278,0,0,29.41412,1,1,1000,1000
59103,55:52.6,IMU,76765115,0,0.006544579,0.009500949,-0.00322084,-1.801266,0.0527469,-9.895993,0,0,29.41619,1,1,1000,1000
59157,55:52.6,IMU,76805099,0,0.00581341,0.009010421,-0.00267997,-1.829508,0.05120638,-9.872082,0,0,29.41827,1,1,1000,1000
59255,55:52.6,IMU,76845083,0,0.005320171,0.009882677,-0.001730637,-1.859385,0.05066454,-9.862267,0,0,29.42035,1,1,1000,1000
59306,55:52.7,IMU,76885067,0,0.004653406,0.008908303,-0.00071632,-1.887102,0.04897238,-9.848514,0,0,29.42243,1,1,1000,1000
59359,55:52.7,IMU,76925051,0,0.000255846,0.01795886,9.186064e-05,-1.915356,0.04958659,-9.840443,0,0,29.42455,1,1,1000,1000
59458,55:52.8,IMU,76965035,0,-0.001080382,0.01763282,0.000597916,-1.943019,0.04912367,-9.820673,0,0,29.42663,1,1,1000,1000
59512,55:52.8,IMU,77005019,0,-0.005163271,0.01533311,0.000865512,-1.968959,0.04858159,-9.804001,0,0,29.42871,1,1,1000,1000
59612,55:52.8,IMU,77045003,0,-0.004294659,0.01436477,0.000991823,-1.995694,0.04732581,-9.79073,0,0,29.43079,1,1,1000,1000
59664,55:52.9,IMU,77084987,0,-0.00304161,0.01336815,0.00141078,-2.019718,0.04700359,-9.777677,0,0,29.43281,1,1,1000,1000
59716,55:52.9,IMU,77124971,0,-0.000821087,0.01076137,0.001563273,-2.044703,0.04638025,-9.757551,0,0,29.43488,1,1,1000,1000
59815,55:53.0,IMU,77164955,0,-0.000988404,0.01030766,0.001774611,-2.068311,0.0471199,-9.746672,0,0,29.43696,1,1,1000,1000
59870,55:53.0,IMU,77204939,0,-0.003701695,0.009347228,0.001880167,-2.092346,0.04580224,-9.734422,0,0,29.43903,1,1,1000,1000
59968,55:53.0,IMU,77244923,0,-0.003126202,0.008480358,0.001873344,-2.115524,0.04459886,-9.726853,0,0,29.44111,1,1,1000,1000
60020,55:53.1,IMU,77284907,0,-0.002689797,0.01340864,0.001789259,-2.136297,0.04486615,-9.720997,0,0,29.44318,1,1,1000,1000
60072,55:53.1,IMU,77324891,0,-0.003548152,0.01849061,0.001917844,-2.159726,0.04547634,-9.707106,0,0,29.44526,1,1,1000,1000
60171,55:53.2,IMU,77364875,0,-0.004623406,0.02091427,0.001688777,-2.179703,0.04457643,-9.687394,0,0,29.44733,1,1,1000,1000
60225,55:53.2,IMU,77404859,0,-0.005046648,0.02162604,0.001374559,-2.202396,0.04480266,-9.677299,0,0,29.44941,1,1,1000,1000
60326,55:53.2,IMU,77444843,0,-0.004427727,0.02252823,0.00106104,-2.220704,0.04419637,-9.667892,0,0,29.45148,1,1,1000,1000
60379,55:53.3,IMU,77484827,0,-0.003769311,0.02053096,0.001108587,-2.241449,0.04445538,-9.661564,0,0,29.45355,1,1,1000,1000
60431,55:53.3,IMU,77524811,0,-0.003266265,0.02313998,0.001202681,-2.261849,0.04502025,-9.655295,0,0,29.45562,1,1,1000,1000
60533,55:53.4,IMU,77564795,0,-0.004187734,0.02789522,0.001241834,-2.279345,0.04343966,-9.639458,0,0,29.4577,1,1,1000,1000
60589,55:53.4,IMU,77604779,0,-0.007015549,0.0305227,0.001010415,-2.29834,0.04378793,-9.624102,0,0,29.45977,1,1,1000,1000
60688,55:53.4,IMU,77644763,0,-0.006080403,0.03253442,0.000750296,-2.316568,0.04409325,-9.615833,0,0,29.46184,1,1,1000,1000
60739,55:53.5,IMU,77684747,0,-0.005387865,0.03286392,0.000714127,-2.334399,0.04351101,-9.61771,0,0,29.46391,1,1,1000,1000
60792,55:53.5,IMU,77724731,0,-0.004043774,0.03569113,0.000728415,-2.350965,0.04322206,-9.600469,0,0,29.46598,1,1,1000,1000
60891,55:53.6,IMU,77764715,0,-0.00325754,0.02808589,0.00072124,-2.365836,0.0432108,-9.589365,0,0,29.46806,1,1,1000,1000
60945,55:53.6,IMU,77804699,0,-0.004716745,0.03366383,0.000671808,-2.381155,0.04365098,-9.576801,0,0,29.47013,1,1,1000,1000
61043,55:53.6,IMU,77844683,0,-0.004044928,0.03850594,0.000522627,-2.397153,0.04357,-9.580165,0,0,29.47219,1,1,1000,1000
61094,55:53.7,IMU,77884667,0,-0.003488309,0.04517831,0.000704447,-2.411184,0.04196296,-9.570635,0,0,29.47427,1,1,1000,1000
61147,55:53.7,IMU,77924651,0,-0.00437843,0.04962102,0.000680735,-2.425466,0.04295005,-9.553387,0,0,29.47634,1,1,1000,1000
61246,55:53.8,IMU,77964635,0,-0.003435027,0.05059833,0.000604822,-2.43915,0.04383696,-9.551003,0,0,29.4784,1,1,1000,1000
61300,55:53.8,IMU,78004619,0,-0.002994124,0.04926228,0.00054522,-2.452643,0.04318023,-9.546558,0,0,29.48048,1,1,1000,1000
61400,55:53.8,IMU,78044603,0,-0.004052379,0.05526712,0.000689086,-2.463771,0.04303306,-9.537156,0,0,29.48254,1,1,1000,1000
61451,55:53.9,IMU,78084587,0,-0.001210848,0.05955891,0.00045202,-2.475249,0.04390779,-9.522247,0,0,29.48461,1,1,1000,1000
61504,55:53.9,IMU,78125404,0,-0.001039006,0.06019565,0.000377364,-2.486788,0.04343236,-9.525696,0,0,29.48673,1,1,1000,1000
61603,55:54.0,IMU,78165388,0,-0.002140299,0.07050614,0.000395464,-2.497494,0.04276408,-9.510108,0,0,29.4888,1,1,1000,1000
61658,55:54.0,IMU,78205372,0,-0.005064048,0.06928208,0.000513693,-2.507181,0.04269246,-9.502829,0,0,29.49087,1,1,1000,1000
61756,55:54.0,IMU,78245356,0,-0.004245121,0.06809804,0.000647242,-2.516411,0.044493,-9.501313,0,0,29.49294,1,1,1000,1000
61808,55:54.1,IMU,78285340,0,-0.003742994,0.07123409,0.000450529,-2.523951,0.0428246,-9.489361,0,0,29.495,1,1,1000,1000
61860,55:54.1,IMU,78325324,0,-0.003214031,0.0680776,0.00038763,-2.532317,0.04390286,-9.493044,0,0,29.49707,1,1,1000,1000
61959,55:54.2,IMU,78365308,0,-0.003615997,0.06733993,0.000350036,-2.536412,0.04404295,-9.47501,0,0,29.49914,1,1,1000,1000
62013,55:54.2,IMU,78405292,0,-0.003244533,0.06106865,0.000153627,-2.542391,0.04517907,-9.474739,0,0,29.50121,1,1,1000,1000
62114,55:54.2,IMU,78445276,0,-0.002767755,0.05310283,7.91886e-05,-2.54743,0.04418592,-9.476355,0,0,29.50327,1,1,1000,1000
62167,55:54.3,IMU,78485260,0,-0.001633801,0.04201047,0.000131411,-2.549573,0.04502201,-9.462349,0,0,29.50534,1,1,1000,1000
62219,55:54.3,IMU,78525244,0,-0.001102391,0.02756257,-0.000256808,-2.550736,0.04430439,-9.460976,0,0,29.5074,1,1,1000,1000
62320,55:54.4,IMU,78565228,0,-0.000985802,0.01813747,-0.00042473,-2.552572,0.04491794,-9.463258,0,0,29.50942,1,1,1000,1000
62376,55:54.4,IMU,78605212,0,-0.000738181,-0.002095715,-0.000667734,-2.552773,0.0451913,-9.463259,0,0,29.51148,1,1,1000,1000
62475,55:54.4,IMU,78645196,0,-0.000488617,-0.007667289,-0.000621158,-2.551128,0.0456773,-9.461873,0,0,29.51355,1,1,1000,1000
62526,55:54.5,IMU,78685180,0,-0.000372518,-0.008745511,-0.000526563,-2.551364,0.04577524,-9.458427,0,0,29.51561,1,1,1000,1000
62579,55:54.5,IMU,78725164,0,-0.000506939,-0.008964955,-0.000691449,-2.550106,0.04645696,-9.464027,0,0,29.51768,1,1,1000,1000
62678,55:54.6,IMU,78765148,0,-0.002910346,-0.009296561,-0.000786422,-2.550771,0.04742249,-9.463664,0,0,29.51974,1,1,1000,1000
62734,55:54.6,IMU,78805132,0,-0.003693039,-0.01077457,-0.00098366,-2.550583,0.0463186,-9.467163,0,0,29.5218,1,1,1000,1000
62832,55:54.6,IMU,78845116,0,-0.004037492,-0.01019126,-0.000879426,-2.551265,0.04655854,-9.470072,0,0,29.52387,1,1,1000,1000
62883,55:54.7,IMU,78885100,0,-0.003450155,-0.008740166,-0.000773067,-2.551594,0.04692568,-9.471619,0,0,29.52593,1,1,1000,1000
62936,55:54.7,IMU,78925084,0,-0.002536869,-0.008032647,-0.000771721,-2.551,0.04686217,-9.471025,0,0,29.52799,1,1,1000,1000
63035,55:54.8,IMU,78965068,0,-0.001686985,-0.00660834,-0.000758356,-2.551465,0.04800561,-9.475112,0,0,29.53006,1,1,1000,1000
63089,55:54.8,IMU,79005052,0,0.000189272,-0.000425397,-0.000697797,-2.551921,0.04819713,-9.468423,0,0,29.53217,1,1,1000,1000
63189,55:54.8,IMU,79045036,0,-0.000745286,0.002473311,-0.000618719,-2.553832,0.048362,-9.479615,0,0,29.53423,1,1,1000,1000
63240,55:54.9,IMU,79085020,0,-0.000404142,0.00221657,-0.000476758,-2.555801,0.0485313,-9.479273,0,0,29.5363,1,1,1000,1000
63293,55:54.9,IMU,79125004,0,-0.00022577,0.002161548,-0.000293284,-2.556721,0.04871892,-9.479851,0,0,29.53836,1,1,1000,1000
63392,55:55.0,IMU,79164988,0,-0.001207341,0.002021438,-0.000368813,-2.556513,0.04780786,-9.471355,0,0,29.54037,1,1,1000,1000
63446,55:55.0,IMU,79204972,0,-0.001015236,-0.001651553,-0.000487748,-2.555486,0.04926485,-9.470749,0,0,29.54243,1,1,1000,1000
63545,55:55.0,IMU,79244956,0,-0.000261602,0.000382704,-0.000556384,-2.558274,0.04940164,-9.473948,0,0,29.54449,1,1,1000,1000
63597,55:55.1,IMU,79284940,0,0.000964242,0.000381468,-0.000662927,-2.558846,0.05015663,-9.472645,0,0,29.54655,1,1,1000,1000
63649,55:55.1,IMU,79324924,0,-0.000803281,0.000450008,-0.000491636,-2.560866,0.05048723,-9.478515,0,0,29.54861,1,1,1000,1000
63748,55:55.2,IMU,79364908,0,-0.000626711,0.000546427,-0.000437562,-2.56012,0.05021221,-9.47834,0,0,29.55067,1,1,1000,1000
63802,55:55.2,IMU,79404892,0,0.001322213,0.000566816,-0.000421394,-2.561739,0.05118137,-9.475724,0,0,29.55273,1,1,1000,1000
63903,55:55.2,IMU,79444876,0,0.001388572,0.002566318,-0.000300915,-2.561866,0.05139523,-9.475124,0,0,29.55479,1,1,1000,1000
63956,55:55.3,IMU,79484860,0,0.001347327,0.005378074,-0.000120337,-2.561004,0.0512988,-9.472709,0,0,29.55685,1,1,1000,1000
64008,55:55.3,IMU,79524844,0,0.001371078,0.006515043,5.666245e-05,-2.563984,0.05250653,-9.479057,0,0,29.55891,1,1,1000,1000
64109,55:55.4,IMU,79564828,0,0.001314161,0.007918081,0.000233838,-2.564728,0.05318186,-9.476843,0,0,29.56097,1,1,1000,1000
64164,55:55.4,IMU,79604812,0,0.001327932,0.007964113,0.000283543,-2.565487,0.05282202,-9.480268,0,0,29.56303,1,1,1000,1000
64264,55:55.4,IMU,79644796,0,0.001258378,0.01068491,0.000477337,-2.567114,0.05448322,-9.479012,0,0,29.56508,1,1,1000,1000
64315,55:55.5,IMU,79684780,0,0.00085384,0.009976492,0.000240021,-2.56708,0.05286336,-9.473505,0,0,29.56714,1,1,1000,1000
64368,55:55.5,IMU,79724764,0,0.001178303,0.0109803,1.21136e-05,-2.568213,0.0536616,-9.47418,0,0,29.5692,1,1,1000,1000
64467,55:55.6,IMU,79764748,0,0.001775404,0.009938222,-0.000190145,-2.568054,0.05352399,-9.476227,0,0,29.57126,1,1,1000,1000
64521,55:55.6,IMU,79804732,0,0.002434841,0.01176833,-0.000416516,-2.567826,0.05514451,-9.474874,0,0,29.57331,1,1,1000,1000
64619,55:55.6,IMU,79844716,0,0.002811202,0.01060046,-0.000646619,-2.569664,0.05428847,-9.476376,0,0,29.57537,1,1,1000,1000
64670,55:55.7,IMU,79884700,0,0.003408993,0.009720929,-0.000847389,-2.569733,0.05492397,-9.480125,0,0,29.57743,1,1,1000,1000
64723,55:55.7,IMU,79924684,0,0.003160092,0.01336142,-0.000911047,-2.569135,0.05434807,-9.478028,0,0,29.57948,1,1,1000,1000
64822,55:55.8,IMU,79964668,0,0.002970613,0.01358893,-0.001007359,-2.57009,0.05568649,-9.477448,0,0,29.58154,1,1,1000,1000
64876,55:55.8,IMU,80004652,0,0.001348559,0.01391854,-0.001150361,-2.57023,0.05484447,-9.480429,0,0,29.58359,1,1,1000,1000
64976,55:55.8,IMU,80044636,0,1.041966e-05,0.01499796,-0.001062832,-2.570781,0.05642264,-9.479437,0,0,29.58565,1,1,1000,1000
65027,55:55.9,IMU,80084620,0,-0.001054825,0.01497197,-0.000972853,-2.569798,0.05623476,-9.476925,0,0,29.58771,1,1,1000,1000
65079,55:55.9,IMU,80124604,0,-0.000828283,0.01568491,-0.000878393,-2.570647,0.05663747,-9.477558,0,0,29.58976,1,1,1000,1000
65179,55:56.0,IMU,80164588,0,0.00049348,0.01485838,-0.000687145,-2.569393,0.05686673,-9.47665,0,0,29.59181,1,1,1000,1000
65233,55:56.0,IMU,80205405,0,0.001633129,0.01337849,-0.000572125,-2.569309,0.05649067,-9.478249,0,0,29.59392,1,1,1000,1000
65332,55:56.0,IMU,80245389,0,0.00273451,0.02178172,-0.000502773,-2.567825,0.05845596,-9.477232,0,0,29.59597,1,1,1000,1000
65384,55:56.1,IMU,80285373,0,0.002456861,0.01994096,-0.000208149,-2.567557,0.05658761,-9.470038,0,0,29.59803,1,1,1000,1000
65436,55:56.1,IMU,80325357,0,0.002331831,0.01645269,-0.000151832,-2.567507,0.05797255,-9.474581,0,0,29.60008,1,1,1000,1000
65535,55:56.2,IMU,80365341,0,0.002264493,0.01376961,-0.000143124,-2.566715,0.05746862,-9.475371,0,0,29.60213,1,1,1000,1000
65589,55:56.2,IMU,80405325,0,0.002142199,0.01245017,2.448229e-05,-2.563992,0.05885904,-9.476275,0,0,29.60419,1,1,1000,1000
65690,55:56.2,IMU,80445309,0,0.00204914,0.01133216,3.034452e-05,-2.562308,0.05866823,-9.478848,0,0,29.60624,1,1,1000,1000
65743,55:56.3,IMU,80485293,0,0.001926725,0.01031395,0.000168323,-2.562231,0.05854726,-9.478855,0,0,29.60829,1,1,1000,1000
65795,55:56.3,IMU,80525277,0,0.00185936,0.009378701,0.00020805,-2.561081,0.05962757,-9.480508,0,0,29.61034,1,1,1000,1000
65896,55:56.4,IMU,80565261,0,0.001778635,0.00851827,0.000334892,-2.559319,0.05921007,-9.481598,0,0,29.6124,1,1,1000,1000
65951,55:56.4,IMU,80605245,0,0.001718527,0.00781339,0.000382215,-2.556986,0.06029391,-9.483876,0,0,29.61445,1,1,1000,1000
66051,55:56.4,IMU,80645229,0,0.001622098,0.007170859,0.000456287,-2.555731,0.05880535,-9.483101,0,0,29.61645,1,1,1000,1000
66103,55:56.5,IMU,80685213,0,0.001627949,0.002052384,0.000538563,-2.553816,0.05958454,-9.482937,0,0,29.6185,1,1,1000,1000
66155,55:56.5,IMU,80725197,0,0.001574266,0.003265012,0.000653767,-2.552126,0.06077423,-9.483688,0,0,29.62055,1,1,1000,1000
66255,55:56.6,IMU,80765181,0,-8.9e-05,0.007211566,0.000775781,-2.548828,0.05974542,-9.480648,0,0,29.6226,1,1,1000,1000
66309,55:56.6,IMU,80805165,0,0.000414166,0.007551315,0.000764691,-2.548354,0.0605606,-9.486423,0,0,29.62465,1,1,1000,1000
66407,55:56.6,IMU,80845149,0,0.001091301,0.01053549,0.000847007,-2.545917,0.06131136,-9.480705,0,0,29.6267,1,1,1000,1000
66458,55:56.7,IMU,80885133,0,-0.000191415,0.01092161,0.000598132,-2.543784,0.0615543,-9.478771,0,0,29.62875,1,1,1000,1000
66511,55:56.7,IMU,80925117,0,-0.001614499,0.01045726,0.000339823,-2.541678,0.06104322,-9.483532,0,0,29.6308,1,1,1000,1000
66610,55:56.8,IMU,80965101,0,-0.002580913,0.01196148,0.000129384,-2.540888,0.061315,-9.481775,0,0,29.63285,1,1,1000,1000
66664,55:56.8,IMU,81005085,0,-0.001734837,0.01114094,-0.000199194,-2.538524,0.06102278,-9.485583,0,0,29.6349,1,1,1000,1000
66764,55:56.8,IMU,81045069,0,-0.001292592,0.01298529,-0.000341662,-2.537371,0.06236038,-9.48666,0,0,29.63694,1,1,1000,1000
66815,55:56.9,IMU,81085053,0,-0.001479278,0.01745321,-0.000506631,-2.534071,0.06177781,-9.478343,0,0,29.63905,1,1,1000,1000
66867,55:56.9,IMU,81125037,0,-0.001234276,0.01750787,-0.000323441,-2.533824,0.0623503,-9.483668,0,0,29.64109,1,1,1000,1000
66969,55:57.0,IMU,81165021,0,-0.00040226,0.01396169,-0.000225165,-2.531026,0.06280056,-9.483186,0,0,29.64314,1,1,1000,1000
67023,55:57.0,IMU,81205005,0,0.000403429,0.01039884,-0.000150376,-2.529301,0.0612256,-9.481148,0,0,29.64519,1,1,1000,1000
67122,55:57.0,IMU,81244989,0,0.000433875,0.008972448,7.23728e-05,-2.525059,0.06278107,-9.483798,0,0,29.64718,1,1,1000,1000
67174,55:57.1,IMU,81284973,0,0.000975056,0.01000691,0.000208396,-2.524247,0.06256724,-9.481459,0,0,29.64923,1,1,1000,1000
67226,55:57.1,IMU,81324957,0,0.000818642,0.008530264,0.000585228,-2.522318,0.06239753,-9.482602,0,0,29.65128,1,1,1000,1000
67325,55:57.2,IMU,81364941,0,0.002376652,0.007207274,0.000824304,-2.519191,0.06256551,-9.48658,0,0,29.65332,1,1,1000,1000
67379,55:57.2,IMU,81404925,0,0.003692005,0.005349677,0.000786964,-2.517461,0.06470865,-9.492063,0,0,29.65537,1,1,1000,1000
67480,55:57.2,IMU,81444909,0,0.0023565,0.006666467,0.000759079,-2.513933,0.06416851,-9.488626,0,0,29.65742,1,1,1000,1000
67533,55:57.3,IMU,81484893,0,0.001953528,0.008063767,0.00061263,-2.511599,0.06509922,-9.487548,0,0,29.65946,1,1,1000,1000
67585,55:57.3,IMU,81524877,0,0.001967145,0.007081464,0.000339085,-2.509605,0.0645282,-9.487248,0,0,29.66151,1,1,1000,1000
67686,55:57.4,IMU,81564861,0,0.001876459,0.007303117,0.00010511,-2.508523,0.06475826,-9.490007,0,0,29.66355,1,1,1000,1000
67741,55:57.4,IMU,81604845,0,0.00181561,0.006177757,-3.24e-05,-2.50496,0.0654348,-9.490869,0,0,29.6656,1,1,1000,1000
67840,55:57.4,IMU,81644829,0,0.001601513,0.007000866,-0.000207224,-2.502159,0.0642207,-9.491954,0,0,29.66764,1,1,1000,1000
67892,55:57.5,IMU,81684813,0,0.000729423,0.007085919,-0.000271425,-2.499666,0.06496477,-9.48928,0,0,29.66969,1,1,1000,1000
67944,55:57.5,IMU,81724797,0,0.001961742,0.007264861,-0.000230998,-2.49888,0.06609999,-9.498632,0,0,29.67173,1,1,1000,1000
68044,55:57.6,IMU,81764781,0,0.002480922,0.003894743,6.255794e-05,-2.494784,0.06512602,-9.49338,0,0,29.67377,1,1,1000,1000
68098,55:57.6,IMU,81804765,0,0.003327689,0.003766595,0.000417427,-2.492793,0.06478898,-9.494231,0,0,29.67582,1,1,1000,1000
68196,55:57.6,IMU,81844749,0,0.002024227,0.004033611,0.000711428,-2.491168,0.06642821,-9.498446,0,0,29.67786,1,1,1000,1000
68247,55:57.7,IMU,81884733,0,0.000665266,0.006887899,0.001043699,-2.488336,0.0656634,-9.4947,0,0,29.6799,1,1,1000,1000
68300,55:57.7,IMU,81924717,0,5.933855e-05,-0.001213555,0.001149354,-2.484892,0.06449763,-9.501659,0,0,29.68194,1,1,1000,1000
68399,55:57.8,IMU,81964701,0,-0.000756773,-0.001780724,0.001138967,-2.481992,0.06718527,-9.492413,0,0,29.68399,1,1,1000,1000
68453,55:57.8,IMU,82004685,0,-0.000515128,0.000435344,0.001057877,-2.482082,0.06621055,-9.49744,0,0,29.68603,1,1,1000,1000
68553,55:57.8,IMU,82044669,0,0.001548403,0.001249676,0.000729253,-2.479087,0.06745138,-9.499668,0,0,29.68807,1,1,1000,1000
68604,55:57.9,IMU,82084653,0,0.001420515,0.005101576,0.000410462,-2.476907,0.06588177,-9.501441,0,0,29.69011,1,1,1000,1000
68656,55:57.9,IMU,82124637,0,0.001366063,0.007580801,0.000128951,-2.472682,0.06782034,-9.500095,0,0,29.69215,1,1,1000,1000
68755,55:58.0,IMU,82164621,0,0.001379322,0.007035489,-1.11e-05,-2.473159,0.06599386,-9.499984,0,0,29.69419,1,1,1000,1000
68810,55:58.0,IMU,82204605,0,0.001347939,0.006722171,-8.46e-05,-2.469743,0.06715492,-9.50039,0,0,29.69624,1,1,1000,1000
68909,55:58.0,IMU,82244589,0,0.001989152,0.008260518,-0.00016411,-2.468708,0.06763597,-9.507936,0,0,29.69827,1,1,1000,1000
68961,55:58.1,IMU,82285406,0,0.001426973,0.007060327,0.000377277,-2.467078,0.06733494,-9.503682,0,0,29.70037,1,1,1000,1000
69013,55:58.1,IMU,82325390,0,-1.11e-05,0.01551747,0.000503547,-2.465236,0.06705038,-9.506488,0,0,29.7024,1,1,1000,1000
69112,55:58.2,IMU,82365374,0,0.001968319,0.01410895,0.000620502,-2.46103,0.0678426,-9.501723,0,0,29.70444,1,1,1000,1000
69166,55:58.2,IMU,82405358,0,0.001810791,0.01285952,0.000562675,-2.460217,0.06847999,-9.502667,0,0,29.70648,1,1,1000,1000
69267,55:58.2,IMU,82445342,0,0.001787957,0.007257565,0.000490395,-2.460049,0.06784635,-9.50644,0,0,29.70852,1,1,1000,1000
69323,55:58.3,IMU,82485326,0,0.001695735,-8.32e-06,0.000639417,-2.4566,0.06727034,-9.501702,0,0,29.71056,1,1,1000,1000
69375,55:58.3,IMU,82525310,0,0.001638933,-0.001713686,0.000615071,-2.453995,0.06880635,-9.504703,0,0,29.7126,1,1,1000,1000
69476,55:58.4,IMU,82565294,0,0.001635717,-0.002358624,0.000681619,-2.451894,0.06835961,-9.504783,0,0,29.71464,1,1,1000,1000
69531,55:58.4,IMU,82605278,0,0.00153743,-0.001974608,0.000713439,-2.448935,0.06826729,-9.50469,0,0,29.71668,1,1,1000,1000
69631,55:58.4,IMU,82645262,0,0.001483329,-0.005227705,0.000833745,-2.44667,0.06860702,-9.504185,0,0,29.71871,1,1,1000,1000
69682,55:58.5,IMU,82685246,0,0.001405723,-0.007882746,0.001006599,-2.443418,0.06792664,-9.502235,0,0,29.72075,1,1,1000,1000
69735,55:58.5,IMU,82725230,0,0.001480629,-0.007442524,0.000991735,-2.442553,0.06940897,-9.504182,0,0,29.72274,1,1,1000,1000
69835,55:58.6,IMU,82765214,0,0.001389189,-0.01874631,0.001035134,-2.43905,0.06851605,-9.504271,0,0,29.72477,1,1,1000,1000
69889,55:58.6,IMU,82805198,0,0.001400088,-0.01644754,0.001043993,-2.437171,0.0695252,-9.501812,0,0,29.72681,1,1,1000,1000
69989,55:58.6,IMU,82845182,0,0.001389295,-0.01327821,0.001018779,-2.434745,0.06911442,-9.50274,0,0,29.72885,1,1,1000,1000
70040,55:58.7,IMU,82885166,0,0.000579034,-0.01023486,0.001074432,-2.432445,0.06953255,-9.505618,0,0,29.73088,1,1,1000,1000
70093,55:58.7,IMU,82925150,0,-0.001401507,-0.007571165,0.00104261,-2.432753,0.07010748,-9.510789,0,0,29.73292,1,1,1000,1000
70192,55:58.8,IMU,82965134,0,-0.001495149,-0.004997359,0.001121007,-2.432176,0.06908553,-9.513537,0,0,29.73495,1,1,1000,1000
70246,55:58.8,IMU,83005118,0,0.000217101,-0.002808395,0.001102194,-2.429749,0.07096173,-9.509572,0,0,29.73699,1,1,1000,1000
70346,55:58.8,IMU,83045102,0,0.000573701,-0.00055301,0.001049962,-2.429558,0.06999067,-9.512522,0,0,29.73903,1,1,1000,1000
70397,55:58.9,IMU,83085086,0,0.001441081,0.000101993,0.000949805,-2.428337,0.07033696,-9.513004,0,0,29.74106,1,1,1000,1000
70449,55:58.9,IMU,83125070,0,0.001621148,0.002135284,0.001021573,-2.428026,0.07119524,-9.511601,0,0,29.74309,1,1,1000,1000
70555,55:59.0,IMU,83165054,0,0.003107745,0.004949154,0.000895249,-2.426716,0.07017295,-9.508518,0,0,29.74518,1,1,1000,1000
70639,55:59.0,IMU,83205038,0,0.002478309,0.04653269,0.001103196,-2.429455,0.07081788,-9.521938,0,0,29.74721,1,1,1000,1000
70769,55:59.0,IMU,83245022,0,0.002836317,0.1041307,0.001814319,-2.431808,0.07025507,-9.518127,0,0,29.74925,1,1,1000,1000
70861,55:59.1,IMU,83285006,0,0.000930181,0.1590603,0.003030067,-2.43404,0.06983485,-9.500356,0,0,29.75128,1,1,1000,1000
70913,55:59.1,IMU,83324990,0,0.002441606,0.3195412,0.004351955,-2.439758,0.0709905,-9.475726,0,0,29.75326,1,1,1000,1000
71012,55:59.2,IMU,83364974,0,0.001654781,0.4343314,0.005823613,-2.449048,0.07228047,-9.428271,0,0,29.75529,1,1,1000,1000
71066,55:59.2,IMU,83404958,0,0.0017013,0.48086,0.006943211,-2.452967,0.07103772,-9.362466,0,0,29.75733,1,1,1000,1000
71167,55:59.2,IMU,83444942,0,0.002302079,0.4762658,0.007823979,-2.452194,0.07216561,-9.295612,0,0,29.75936,1,1,1000,1000
71222,55:59.3,IMU,83484926,0,0.001471964,0.4421279,0.008644648,-2.443004,0.0734367,-9.228189,0,0,29.76139,1,1,1000,1000
71274,55:59.3,IMU,83524910,0,0.002026174,0.3960745,0.009013104,-2.428845,0.07255977,-9.177188,0,0,29.76342,1,1,1000,1000
71375,55:59.4,IMU,83564894,0,0.002304616,0.3477407,0.009167155,-2.409835,0.07302716,-9.13887,0,0,29.76545,1,1,1000,1000
71430,55:59.4,IMU,83604878,0,0.003144791,0.3044232,0.009067566,-2.383946,0.07342149,-9.106007,0,0,29.76749,1,1,1000,1000
71529,55:59.4,IMU,83644862,0,0.002353918,0.268399,0.008785198,-2.357969,0.07402834,-9.087594,0,0,29.76952,1,1,1000,1000
71581,55:59.5,IMU,83684846,0,0.001280493,0.2389042,0.0083983,-2.327724,0.07456293,-9.072068,0,0,29.77155,1,1,1000,1000
71634,55:59.5,IMU,83724830,0,0.003661342,0.2140383,0.007782266,-2.294951,0.07508513,-9.065254,0,0,29.77358,1,1,1000,1000
71733,55:59.6,IMU,83764814,0,0.001657933,0.2005311,0.007271261,-2.264293,0.07432903,-9.069468,0,0,29.77561,1,1,1000,1000
71788,55:59.6,IMU,83804798,0,0.002551186,0.1873062,0.006607458,-2.231479,0.07567656,-9.086737,0,0,29.77764,1,1,1000,1000
71886,55:59.6,IMU,83844782,0,0.002414841,0.1774802,0.006198799,-2.194558,0.07536795,-9.083146,0,0,29.77967,1,1,1000,1000
