Unnamed: 0,Timestamp,Unnamed: 2,TimeUS,I,GyrX,GyrY,GyrZ,AccX,AccY,AccZ,EG,EA,T,GH,AH,GHz,AHz
200981,57:11.7,IMU,155885121,0,0.01926747,0.01576951,0.3520469,-3.430654,2.017425,-9.190495,0,0,33.02886,1,1,1000,1000
201033,57:11.7,IMU,155925105,0,0.01378187,0.02533873,0.3445423,-3.400582,2.033533,-9.191182,0,0,33.03045,1,1,1000,1000
201132,57:11.8,IMU,155965089,0,0.007999128,0.03225351,0.3360993,-3.372071,2.048839,-9.192698,0,0,33.03205,1,1,1000,1000
201186,57:11.8,IMU,156005073,0,0.003605306,0.03727699,0.3270334,-3.34824,2.062395,-9.196568,0,0,33.03365,1,1,1000,1000
201287,57:11.8,IMU,156045057,0,0.002567581,0.04290335,0.3173137,-3.325064,2.07603,-9.203808,0,0,33.03528,1,1,1000,1000
201339,57:11.9,IMU,156085041,0,0.002621626,0.05215001,0.3073434,-3.302475,2.087622,-9.205113,0,0,33.03688,1,1,1000,1000
201391,57:11.9,IMU,156125025,0,0.002560538,0.04811333,0.2967671,-3.283103,2.097329,-9.197429,0,0,33.03847,1,1,1000,1000
201490,57:12.0,IMU,156165009,0,-0.00125008,0.04902546,0.2866585,-3.263759,2.106951,-9.190716,0,0,33.04007,1,1,1000,1000
201544,57:12.0,IMU,156204993,0,-0.001698285,0.04541767,0.2760064,-3.245321,2.116012,-9.197011,0,0,33.04162,1,1,1000,1000
201642,57:12.0,IMU,156244977,0,-0.002605844,0.0407193,0.2657996,-3.226987,2.121631,-9.185895,0,0,33.04321,1,1,1000,1000
201693,57:12.1,IMU,156284961,0,-0.000628343,0.0420373,0.2560048,-3.212474,2.128441,-9.183989,0,0,33.04481,1,1,1000,1000
201745,57:12.1,IMU,156324945,0,-0.003890022,0.03867973,0.2466586,-3.196839,2.133922,-9.184993,0,0,33.0464,1,1,1000,1000
201845,57:12.2,IMU,156364929,0,-0.000625725,0.03891315,0.2371483,-3.183416,2.140671,-9.186909,0,0,33.048,1,1,1000,1000
201899,57:12.2,IMU,156404913,0,-0.006141063,0.03476722,0.2281916,-3.171133,2.142413,-9.185931,0,0,33.04959,1,1,1000,1000
201999,57:12.2,IMU,156444897,0,-0.008577614,0.03128249,0.219592,-3.157145,2.145154,-9.17293,0,0,33.05119,1,1,1000,1000
202053,57:12.3,IMU,156484881,0,-0.009105369,0.02805736,0.2112695,-3.14604,2.147915,-9.169722,0,0,33.05278,1,1,1000,1000
202105,57:12.3,IMU,156524865,0,-0.007795101,0.02775299,0.2035639,-3.137516,2.148518,-9.174387,0,0,33.05437,1,1,1000,1000
202207,57:12.4,IMU,156564849,0,-0.01193214,0.0271355,0.1962338,-3.125778,2.150023,-9.174542,0,0,33.05596,1,1,1000,1000
202261,57:12.4,IMU,156604833,0,-0.01493998,0.02498067,0.1890623,-3.117125,2.150922,-9.170673,0,0,33.05756,1,1,1000,1000
202360,57:12.4,IMU,156644817,0,-0.01850402,0.02027663,0.1819626,-3.109037,2.150792,-9.163601,0,0,33.05915,1,1,1000,1000
202412,57:12.5,IMU,156684801,0,-0.01605029,0.01842826,0.1750396,-3.099874,2.151111,-9.161635,0,0,33.06074,1,1,1000,1000
202465,57:12.5,IMU,156724785,0,-0.01859497,0.01869621,0.1687443,-3.094093,2.14954,-9.163597,0,0,33.06233,1,1,1000,1000
202564,57:12.6,IMU,156764769,0,-0.02440234,0.01764482,0.1626447,-3.087728,2.14759,-9.163184,0,0,33.06392,1,1,1000,1000
202618,57:12.6,IMU,156804753,0,-0.02725477,0.01596165,0.1564925,-3.081076,2.145376,-9.156761,0,0,33.06551,1,1,1000,1000
202717,57:12.6,IMU,156844737,0,-0.02486999,0.01450174,0.1501778,-3.075966,2.142804,-9.148624,0,0,33.0671,1,1,1000,1000
202769,57:12.7,IMU,156884721,0,-0.02243704,0.00924815,0.1440479,-3.072032,2.141527,-9.150844,0,0,33.0687,1,1,1000,1000
202821,57:12.7,IMU,156924705,0,-0.02568405,0.009844025,0.1383468,-3.067879,2.140236,-9.153996,0,0,33.07029,1,1,1000,1000
202920,57:12.8,IMU,156964689,0,-0.03008547,0.008973157,0.1326667,-3.064374,2.136578,-9.143843,0,0,33.07188,1,1,1000,1000
202974,57:12.8,IMU,157004673,0,-0.03498129,0.007630073,0.1272491,-3.059989,2.132448,-9.134697,0,0,33.07347,1,1,1000,1000
203076,57:12.8,IMU,157044657,0,-0.03710463,0.007653042,0.1216576,-3.05914,2.128771,-9.14351,0,0,33.07506,1,1,999,999
203128,57:12.9,IMU,157084641,0,-0.0329422,0.007130129,0.1158493,-3.056636,2.125817,-9.137979,0,0,33.07665,1,1,999,999
203180,57:12.9,IMU,157124625,0,-0.0337045,0.008796337,0.1107366,-3.057884,2.122628,-9.136114,0,0,33.07824,1,1,999,999
203280,57:13.0,IMU,157164609,0,-0.03705966,0.004964718,0.1052046,-3.056019,2.119874,-9.135071,0,0,33.07983,1,1,999,999
203334,57:13.0,IMU,157204593,0,-0.04143165,0.004802205,0.1001588,-3.055736,2.114758,-9.128683,0,0,33.08142,1,1,999,999
203432,57:13.0,IMU,157244577,0,-0.04359226,0.006226487,0.09517675,-3.05625,2.111065,-9.135626,0,0,33.083,1,1,999,999
203483,57:13.1,IMU,157285394,0,-0.04656861,0.01007892,0.0900577,-3.056562,2.10633,-9.120393,0,0,33.08463,1,1,999,999
203535,57:13.1,IMU,157325378,0,-0.04877368,0.009496463,0.08512099,-3.058338,2.102551,-9.11777,0,0,33.08622,1,1,999,999
203635,57:13.2,IMU,157365362,0,-0.04999067,0.006954288,0.07982356,-3.062057,2.098044,-9.128462,0,0,33.08781,1,1,999,999
203730,57:13.2,IMU,157405346,0,-0.04926028,0.006569112,0.07476725,-3.064622,2.092004,-9.120435,0,0,33.0894,1,1,999,999
203830,57:13.2,IMU,157445330,0,-0.05098408,0.003803618,0.06991395,-3.067353,2.089018,-9.115488,0,0,33.09099,1,1,999,999
203884,57:13.3,IMU,157485314,0,-0.05248717,0.006748025,0.06509058,-3.070812,2.084115,-9.115936,0,0,33.09258,1,1,999,999
203936,57:13.3,IMU,157525298,0,-0.05373473,0.006130533,0.06032516,-3.072688,2.078929,-9.104402,0,0,33.09416,1,1,999,999
204038,57:13.4,IMU,157565282,0,-0.0553297,0.004502754,0.05548362,-3.079423,2.074156,-9.112662,0,0,33.09575,1,1,999,999
204092,57:13.4,IMU,157605266,0,-0.05688177,0.004633455,0.05074539,-3.084892,2.06821,-9.100722,0,0,33.09734,1,1,999,999
204191,57:13.4,IMU,157645250,0,-0.0583412,0.002375389,0.04607475,-3.088855,2.063713,-9.103135,0,0,33.09892,1,1,999,999
204243,57:13.5,IMU,157685234,0,-0.06012954,0.005247277,0.04145915,-3.094729,2.059005,-9.103561,0,0,33.10051,1,1,999,999
204296,57:13.5,IMU,157725218,0,-0.06193306,0.000157487,0.03682905,-3.100212,2.054004,-9.103372,0,0,33.10205,1,1,999,999
204395,57:13.6,IMU,157765202,0,-0.06258364,0.002411534,0.03235029,-3.106914,2.049191,-9.100159,0,0,33.10364,1,1,999,999
204449,57:13.6,IMU,157805186,0,-0.06246061,0.002925432,0.02783716,-3.112345,2.043225,-9.095448,0,0,33.10523,1,1,999,999
204548,57:13.6,IMU,157845170,0,-0.05729003,0.007548347,0.02353695,-3.12001,2.039216,-9.095339,0,0,33.10682,1,1,999,999
204600,57:13.7,IMU,157885154,0,-0.05109966,0.01605392,0.01943609,-3.128071,2.032892,-9.091771,0,0,33.1084,1,1,999,999
204652,57:13.7,IMU,157925138,0,-0.04212048,0.0262927,0.01534133,-3.138018,2.031132,-9.093796,0,0,33.10999,1,1,999,999
204751,57:13.8,IMU,157965122,0,-0.03366229,0.03548305,0.01196085,-3.147936,2.026986,-9.093016,0,0,33.11157,1,1,999,999
204805,57:13.8,IMU,158005106,0,-0.02445599,0.04386871,0.008984813,-3.157447,2.023538,-9.08937,0,0,33.11316,1,1,999,999
204905,57:13.8,IMU,158045090,0,-0.0166813,0.04978426,0.006384987,-3.167637,2.022042,-9.091874,0,0,33.11474,1,1,1000,1000
204958,57:13.9,IMU,158085074,0,-0.01023815,0.05491053,0.004462495,-3.179665,2.02002,-9.08785,0,0,33.11633,1,1,1000,1000
205010,57:13.9,IMU,158125058,0,-0.004339303,0.06470929,0.003184272,-3.189271,2.016977,-9.086319,0,0,33.11795,1,1,1000,1000
205109,57:14.0,IMU,158165042,0,0.000799829,0.06772844,0.002001354,-3.200661,2.016083,-9.080036,0,0,33.11953,1,1,1000,1000
205163,57:14.0,IMU,158205026,0,0.004161625,0.06864448,0.001615534,-3.208562,2.013308,-9.070564,0,0,33.12112,1,1,1000,1000
205261,57:14.0,IMU,158245010,0,0.004829047,0.0609142,0.001189455,-3.218289,2.013094,-9.076765,0,0,33.1227,1,1,1000,1000
205312,57:14.1,IMU,158284994,0,0.006053178,0.05522934,0.001021868,-3.223475,2.011449,-9.062953,0,0,33.12424,1,1,1000,1000
205364,57:14.1,IMU,158324978,0,0.005594332,0.04098716,0.001079584,-3.229537,2.010812,-9.067666,0,0,33.12583,1,1,1000,1000
205463,57:14.2,IMU,158364962,0,0.004247329,0.02593281,0.000735288,-3.231929,2.008923,-9.049191,0,0,33.12741,1,1,1000,1000
205519,57:14.2,IMU,158404946,0,0.004051462,0.01330903,0.0002714,-3.234591,2.007785,-9.053883,0,0,33.12899,1,1,1000,1000
205619,57:14.2,IMU,158444930,0,0.00391253,0.004852282,7.226898e-05,-3.234698,2.006195,-9.053066,0,0,33.13058,1,1,1000,1000
205673,57:14.3,IMU,158484914,0,0.003633685,-0.004790489,-0.000133713,-3.235361,2.005838,-9.048882,0,0,33.13216,1,1,1000,1000
205725,57:14.3,IMU,158524898,0,0.002030413,-0.00899331,-4.77e-05,-3.234627,2.003165,-9.034409,0,0,33.13374,1,1,1000,1000
205827,57:14.4,IMU,158564882,0,-0.001998464,-0.01339257,-0.000176336,-3.235168,2.003259,-9.046459,0,0,33.13532,1,1,1000,1000
205881,57:14.4,IMU,158604866,0,-0.009371709,-0.01724575,-0.000212986,-3.23355,2.002679,-9.047349,0,0,33.13691,1,1,1000,1000
205980,57:14.4,IMU,158644850,0,-0.01586444,-0.01722763,-0.000103544,-3.232234,1.998896,-9.041849,0,0,33.13849,1,1,1000,1000
206032,57:14.5,IMU,158684834,0,-0.02229492,-0.01510253,-0.000252068,-3.232194,1.997954,-9.042756,0,0,33.14007,1,1,1000,1000
206085,57:14.5,IMU,158724818,0,-0.02744529,-0.01287694,-0.000713131,-3.232146,1.994777,-9.036171,0,0,33.14165,1,1,1000,1000
206184,57:14.6,IMU,158764802,0,-0.03063857,-0.01328303,-0.001298717,-3.233491,1.991316,-9.035957,0,0,33.14323,1,1,1000,1000
206238,57:14.6,IMU,158804786,0,-0.03586997,-0.009441545,-0.002043054,-3.236047,1.99149,-9.045195,0,0,33.14481,1,1,1000,1000
206337,57:14.6,IMU,158844770,0,-0.03832695,-0.008216852,-0.00289437,-3.237412,1.986453,-9.040385,0,0,33.14639,1,1,1000,1000
206388,57:14.7,IMU,158884754,0,-0.04058873,-0.008967529,-0.003968027,-3.239481,1.983741,-9.048683,0,0,33.14797,1,1,1000,1000
206441,57:14.7,IMU,158924738,0,-0.04208716,-0.006720508,-0.00527088,-3.242296,1.982257,-9.042163,0,0,33.14955,1,1,1000,1000
206540,57:14.8,IMU,158964722,0,-0.04391868,-0.008846982,-0.00660307,-3.243122,1.979773,-9.041225,0,0,33.15113,1,1,1000,1000
206594,57:14.8,IMU,159004706,0,-0.0466399,-0.01087603,-0.008415489,-3.245644,1.976881,-9.041134,0,0,33.15271,1,1,1000,1000
206694,57:14.8,IMU,159044690,0,-0.04963563,-0.003402995,-0.009960321,-3.248397,1.97479,-9.042504,0,0,33.15429,1,1,1000,1000
206747,57:14.9,IMU,159084674,0,-0.05196642,-0.001504941,-0.01190466,-3.252893,1.971374,-9.043836,0,0,33.15587,1,1,1000,1000
206799,57:14.9,IMU,159124658,0,-0.05353775,0.002833962,-0.01395023,-3.258193,1.969335,-9.04961,0,0,33.15745,1,1,1000,1000
206898,57:15.0,IMU,159164642,0,-0.05271791,0.001552793,-0.01636028,-3.263093,1.96795,-9.047346,0,0,33.15903,1,1,1000,1000
206954,57:15.0,IMU,159204626,0,-0.05019348,0.002170072,-0.01872645,-3.265872,1.964301,-9.042834,0,0,33.16061,1,1,1000,1000
207052,57:15.0,IMU,159244610,0,-0.0508415,0.003996491,-0.0209153,-3.272413,1.962155,-9.050646,0,0,33.16219,1,1,1000,1000
207103,57:15.1,IMU,159284594,0,-0.05038211,0.007293507,-0.02332431,-3.278737,1.959383,-9.048922,0,0,33.16376,1,1,1000,1000
207155,57:15.1,IMU,159324578,0,-0.0497448,0.006531838,-0.02567305,-3.283804,1.95751,-9.043438,0,0,33.16534,1,1,1000,1000
207254,57:15.2,IMU,159365395,0,-0.04849704,0.01191918,-0.02809735,-3.29176,1.95554,-9.050497,0,0,33.16696,1,1,1000,1000
207309,57:15.2,IMU,159405379,0,-0.04869979,0.01065345,-0.03068381,-3.297186,1.952978,-9.046597,0,0,33.16854,1,1,1000,1000
207410,57:15.2,IMU,159445363,0,-0.05085222,0.009653904,-0.03291188,-3.303967,1.94951,-9.037897,0,0,33.17011,1,1,1000,1000
207464,57:15.3,IMU,159485347,0,-0.05315856,0.01058456,-0.03487167,-3.310446,1.948048,-9.043449,0,0,33.17169,1,1,1000,1000
207516,57:15.3,IMU,159525331,0,-0.05415827,0.006956809,-0.03736199,-3.317619,1.945629,-9.044138,0,0,33.17327,1,1,1000,1000
207617,57:15.4,IMU,159565315,0,-0.0545873,0.00660214,-0.03975019,-3.324308,1.94337,-9.03743,0,0,33.17485,1,1,1000,1000
207672,57:15.4,IMU,159605299,0,-0.05539443,0.008459875,-0.0420037,-3.331276,1.940589,-9.039585,0,0,33.17642,1,1,1000,1000
207771,57:15.4,IMU,159645283,0,-0.05416977,0.008997429,-0.04443666,-3.338136,1.938061,-9.037685,0,0,33.178,1,1,1000,1000
207823,57:15.5,IMU,159685267,0,-0.05325695,0.008356857,-0.04673937,-3.346349,1.933845,-9.031016,0,0,33.17957,1,1,1000,1000
207876,57:15.5,IMU,159725251,0,-0.05315739,0.009981397,-0.04881458,-3.354937,1.933057,-9.039736,0,0,33.18115,1,1,1000,1000
207975,57:15.6,IMU,159765235,0,-0.05327742,0.009503241,-0.05142083,-3.360777,1.929872,-9.036981,0,0,33.18273,1,1,1000,1000
208029,57:15.6,IMU,159805219,0,-0.05397766,0.006465228,-0.05380436,-3.369618,1.927933,-9.036013,0,0,33.18427,1,1,1000,1000
208128,57:15.6,IMU,159845203,0,-0.05277903,0.005788861,-0.05633269,-3.375893,1.925303,-9.027828,0,0,33.18584,1,1,1000,1000
208179,57:15.7,IMU,159885187,0,-0.05187875,0.00600065,-0.05881006,-3.386597,1.92171,-9.027298,0,0,33.18741,1,1,1000,1000
208233,57:15.7,IMU,159925171,0,-0.05282983,0.005795404,-0.06104907,-3.393975,1.918033,-9.018994,0,0,33.18899,1,1,1000,1000
208332,57:15.8,IMU,159965155,0,-0.05623564,0.00639216,-0.06306864,-3.402773,1.916441,-9.024706,0,0,33.19056,1,1,1000,1000
208386,57:15.8,IMU,160005139,0,-0.05845509,0.00860191,-0.06524902,-3.411897,1.912851,-9.020999,0,0,33.19214,1,1,1000,1000
208486,57:15.8,IMU,160045123,0,-0.05969726,0.007738545,-0.06749547,-3.42202,1.909263,-9.0213,0,0,33.19371,1,1,1000,1000
208539,57:15.9,IMU,160085107,0,-0.06025715,0.008495417,-0.06963989,-3.4319,1.904856,-9.027875,0,0,33.19529,1,1,1000,1000
208591,57:15.9,IMU,160125091,0,-0.05920639,0.007289659,-0.07214341,-3.440898,1.901598,-9.017827,0,0,33.19686,1,1,1000,1000
208690,57:16.0,IMU,160165075,0,-0.05748968,0.006709566,-0.0744197,-3.450593,1.898059,-9.009287,0,0,33.19843,1,1,1000,1000
208744,57:16.0,IMU,160205059,0,-0.05565279,0.007090057,-0.07701891,-3.460768,1.894888,-9.018906,0,0,33.20005,1,1,1000,1000
208855,57:16.0,IMU,160245043,0,-0.05643256,0.0068,-0.07922423,-3.469308,1.891284,-9.00983,0,0,33.20162,1,1,1000,1000
208936,57:16.1,IMU,160285027,0,-0.04527895,0.01817815,-0.07894939,-3.481935,1.887112,-9.010059,0,0,33.20319,1,1,1000,1000
209018,57:16.1,IMU,160325011,0,-0.03312129,0.02777707,-0.06432816,-3.491956,1.885921,-9.01305,0,0,33.20477,1,1,1000,1000
209159,57:16.2,IMU,160364995,0,-0.02020409,0.04602686,-0.02608167,-3.497208,1.889545,-8.996283,0,0,33.2063,1,1,1000,1000
209214,57:16.2,IMU,160404979,0,0.02191399,0.1969407,0.03354679,-3.506011,1.90065,-8.99999,0,0,33.20787,1,1,1000,1000
209315,57:16.2,IMU,160444963,0,0.05875426,0.3315056,0.1018602,-3.519259,1.927111,-9.022472,0,0,33.20944,1,1,1000,1000
209369,57:16.3,IMU,160484947,0,0.08493173,0.411071,0.169895,-3.530278,1.966259,-9.04206,0,0,33.21101,1,1,1000,1000
209421,57:16.3,IMU,160524931,0,0.09944569,0.4512222,0.2317554,-3.53303,2.015249,-9.05078,0,0,33.21259,1,1,1000,1000
209522,57:16.4,IMU,160564915,0,0.1092051,0.4675305,0.2834724,-3.519886,2.074807,-9.051764,0,0,33.21416,1,1,1000,1000
209577,57:16.4,IMU,160604899,0,0.1160581,0.4718477,0.3233199,-3.493078,2.139452,-9.051709,0,0,33.21573,1,1,1000,1000
209676,57:16.4,IMU,160644883,0,0.1207325,0.4709778,0.3505902,-3.453146,2.209019,-9.053063,0,0,33.2173,1,1,1000,1000
209728,57:16.5,IMU,160684867,0,0.1233299,0.4674897,0.3655827,-3.400525,2.281754,-9.057581,0,0,33.21887,1,1,1000,1000
209781,57:16.5,IMU,160724851,0,0.1244796,0.4623089,0.3694942,-3.341105,2.352257,-9.072121,0,0,33.22044,1,1,1000,1000
209881,57:16.6,IMU,160764835,0,0.1249264,0.4580557,0.3637339,-3.274422,2.421849,-9.085957,0,0,33.22202,1,1,1000,1000
209935,57:16.6,IMU,160804819,0,0.1259755,0.4555856,0.3500161,-3.203436,2.485777,-9.106215,0,0,33.22358,1,1,1000,1000
210034,57:16.6,IMU,160844803,0,0.1260803,0.4519959,0.3297472,-3.128544,2.54728,-9.131891,0,0,33.22515,1,1,1000,1000
210085,57:16.7,IMU,160884787,0,0.124215,0.449657,0.3049878,-3.05003,2.600611,-9.158644,0,0,33.22672,1,1,1000,1000
210138,57:16.7,IMU,160924771,0,0.1241095,0.4480936,0.2766641,-2.973572,2.647343,-9.193087,0,0,33.22829,1,1,1000,1000
210238,57:16.8,IMU,160964755,0,0.1235906,0.4475155,0.2463512,-2.896862,2.683922,-9.222445,0,0,33.22986,1,1,1000,1000
210292,57:16.8,IMU,161004739,0,0.1220695,0.4454172,0.2151943,-2.822071,2.714338,-9.260966,0,0,33.23143,1,1,1000,1000
210392,57:16.8,IMU,161044723,0,0.1210013,0.444674,0.1838475,-2.746797,2.739975,-9.301868,0,0,33.233,1,1,1000,1000
210443,57:16.9,IMU,161084707,0,0.1193348,0.4427571,0.1532951,-2.674623,2.754954,-9.348076,0,0,33.23457,1,1,1000,1000
210496,57:16.9,IMU,161124691,0,0.1166152,0.4418749,0.1241064,-2.604598,2.764113,-9.393325,0,0,33.23614,1,1,1000,1000
210595,57:17.0,IMU,161164675,0,0.1140768,0.4381565,0.09647492,-2.534726,2.768861,-9.440605,0,0,33.23771,1,1,1000,1000
210649,57:17.0,IMU,161204659,0,0.1128939,0.4349856,0.07099391,-2.464545,2.766267,-9.488243,0,0,33.23927,1,1,1000,1000
210747,57:17.0,IMU,161244643,0,0.1102425,0.4332033,0.04778256,-2.397439,2.759318,-9.54266,0,0,33.24084,1,1,1000,1000
210798,57:17.1,IMU,161284627,0,0.1082755,0.4318903,0.02674044,-2.330448,2.74791,-9.593818,0,0,33.24241,1,1,1000,1000
210850,57:17.1,IMU,161324611,0,0.1046935,0.4287818,0.007785647,-2.261913,2.731591,-9.645459,0,0,33.24398,1,1,1000,1000
210949,57:17.2,IMU,161364595,0,0.1013525,0.4244974,-0.009184103,-2.195919,2.713349,-9.706111,0,0,33.24554,1,1,1000,1000
211004,57:17.2,IMU,161404579,0,0.09756459,0.4248074,-0.0240516,-2.127831,2.694243,-9.759318,0,0,33.24711,1,1,1000,1000
211104,57:17.2,IMU,161445396,0,0.09502187,0.4262985,-0.03741028,-2.059401,2.669282,-9.82403,0,0,33.24872,1,1,1000,1000
211159,57:17.3,IMU,161485380,0,0.0922102,0.4284588,-0.04855427,-1.991707,2.644202,-9.882749,0,0,33.25029,1,1,1000,1000
211211,57:17.3,IMU,161525364,0,0.0890085,0.4310726,-0.05857076,-1.923608,2.619077,-9.945473,0,0,33.25185,1,1,1000,1000
211313,57:17.4,IMU,161565348,0,0.08390795,0.4350171,-0.06717914,-1.854792,2.592716,-10.0061,0,0,33.25342,1,1,1000,1000
211368,57:17.4,IMU,161605332,0,0.08028604,0.4383695,-0.07263668,-1.787504,2.56535,-10.07104,0,0,33.25499,1,1,1000,1000
211467,57:17.4,IMU,161645316,0,0.07595486,0.437705,-0.06385678,-1.715593,2.538329,-10.13244,0,0,33.25655,1,1,1000,1000
211519,57:17.5,IMU,161685300,0,0.06949184,0.4263093,-0.03044197,-1.641889,2.511862,-10.19935,0,0,33.25812,1,1,1000,1000
211571,57:17.5,IMU,161725284,0,0.06048658,0.3949074,0.03210012,-1.555998,2.488131,-10.26371,0,0,33.25968,1,1,1000,1000
211670,57:17.6,IMU,161765268,0,0.0518179,0.3500519,0.1255018,-1.461942,2.471138,-10.3234,0,0,33.26125,1,1,1000,1000
211724,57:17.6,IMU,161805252,0,0.04242479,0.3013189,0.2487697,-1.354176,2.457063,-10.37346,0,0,33.26281,1,1,1000,1000
211823,57:17.6,IMU,161845236,0,0.0363747,0.2522441,0.3963523,-1.235219,2.455415,-10.41374,0,0,33.26438,1,1,1000,1000
211874,57:17.7,IMU,161885220,0,0.03001183,0.2082972,0.5497094,-1.110244,2.466713,-10.43833,0,0,33.2659,1,1,1000,1000
211926,57:17.7,IMU,161925204,0,0.01989982,0.1645693,0.7008736,-0.9750838,2.487703,-10.45897,0,0,33.26747,1,1,1000,1000
212026,57:17.8,IMU,161965188,0,0.01318599,0.1224742,0.8369576,-0.833998,2.5137,-10.47272,0,0,33.26903,1,1,1000,1000
212080,57:17.8,IMU,162005172,0,0.003909262,0.08219591,0.953082,-0.6896204,2.539165,-10.47399,0,0,33.2706,1,1,1000,1000
212183,57:17.8,IMU,162045156,0,-0.007601779,0.0474027,1.047592,-0.5449489,2.556489,-10.46614,0,0,33.27216,1,1,999,999
212234,57:17.9,IMU,162085140,0,-0.02071194,0.01635277,1.120857,-0.4032184,2.564025,-10.45225,0,0,33.27372,1,1,999,999
212287,57:17.9,IMU,162125124,0,-0.03619179,-0.01487022,1.174426,-0.2695366,2.557964,-10.44316,0,0,33.27528,1,1,999,999
212386,57:18.0,IMU,162165108,0,-0.05483292,-0.04583354,1.21119,-0.1455514,2.534601,-10.42455,0,0,33.27685,1,1,999,999
212440,57:18.0,IMU,162205092,0,-0.07428865,-0.07579938,1.233851,-0.03199143,2.496349,-10.40232,0,0,33.27841,1,1,999,999
212538,57:18.0,IMU,162245076,0,-0.09294972,-0.1026273,1.245053,0.07424605,2.441842,-10.37719,0,0,33.27998,1,1,999,999
212589,57:18.1,IMU,162285060,0,-0.1126494,-0.1266914,1.247453,0.1886879,2.373044,-10.3528,0,0,33.28158,1,1,999,999
212641,57:18.1,IMU,162325044,0,-0.1305241,-0.1507387,1.243145,0.3107737,2.28946,-10.32197,0,0,33.28314,1,1,999,999
212740,57:18.2,IMU,162365028,0,-0.1457628,-0.1686225,1.233838,0.4385682,2.195568,-10.2822,0,0,33.2847,1,1,999,999
212794,57:18.2,IMU,162405012,0,-0.1593319,-0.1819263,1.220996,0.5672677,2.090076,-10.23872,0,0,33.28626,1,1,999,999
212894,57:18.2,IMU,162444996,0,-0.1697444,-0.1887341,1.206078,0.6998654,1.97806,-10.19285,0,0,33.28779,1,1,999,999
212950,57:18.3,IMU,162484980,0,-0.1781385,-0.1856115,1.190173,0.8302321,1.859555,-10.14123,0,0,33.28935,1,1,999,999
213002,57:18.3,IMU,162524964,0,-0.1846357,-0.1820575,1.173316,0.9589686,1.739524,-10.09252,0,0,33.29091,1,1,999,999
213103,57:18.4,IMU,162564948,0,-0.1900171,-0.1769522,1.156482,1.081743,1.616496,-10.04351,0,0,33.29247,1,1,999,999
213158,57:18.4,IMU,162604932,0,-0.1940743,-0.1709447,1.140041,1.198643,1.491788,-9.988242,0,0,33.29403,1,1,999,999
213257,57:18.4,IMU,162644916,0,-0.1954012,-0.1552425,1.124556,1.311035,1.3693,-9.946957,0,0,33.29559,1,1,999,999
213309,57:18.5,IMU,162684900,0,-0.1960174,-0.1385645,1.110036,1.416275,1.246897,-9.902939,0,0,33.29715,1,1,999,999
213361,57:18.5,IMU,162724884,0,-0.1965486,-0.123854,1.096674,1.513146,1.128157,-9.857903,0,0,33.29871,1,1,999,999
213461,57:18.6,IMU,162764868,0,-0.1938605,-0.1081377,1.085016,1.603023,1.012035,-9.831347,0,0,33.30027,1,1,999,999
213515,57:18.6,IMU,162804852,0,-0.1918634,-0.09351411,1.074766,1.683503,0.9005732,-9.7899,0,0,33.30183,1,1,999,999
213614,57:18.6,IMU,162844836,0,-0.1911882,-0.07692847,1.066173,1.756398,0.7929927,-9.759342,0,0,33.30339,1,1,999,999
213665,57:18.7,IMU,162884820,0,-0.1908981,-0.05735972,1.059019,1.81896,0.6885816,-9.729687,0,0,33.30495,1,1,999,999
213717,57:18.7,IMU,162924804,0,-0.189129,-0.04156264,1.05321,1.876399,0.5890987,-9.713406,0,0,33.30651,1,1,999,999
213816,57:18.8,IMU,162964788,0,-0.1882199,-0.02750189,1.049,1.92358,0.4956705,-9.693731,0,0,33.30807,1,1,999,999
213871,57:18.8,IMU,163004772,0,-0.1839579,-0.01489583,1.046301,1.964384,0.4056826,-9.675938,0,0,33.30963,1,1,999,999
213971,57:18.8,IMU,163044756,0,-0.1824662,-0.001623576,1.044354,1.99622,0.3223006,-9.653017,0,0,33.31119,1,1,1000,1000
214022,57:18.9,IMU,163084740,0,-0.1840577,0.01339274,1.043206,2.02017,0.2402735,-9.643475,0,0,33.31274,1,1,1000,1000
214075,57:18.9,IMU,163124724,0,-0.1848224,0.02210329,1.043001,2.037364,0.1663772,-9.633755,0,0,33.3143,1,1,1000,1000
214174,57:19.0,IMU,163164708,0,-0.1796561,0.03058388,1.043479,2.047347,0.09506717,-9.622524,0,0,33.31586,1,1,1000,1000
214230,57:19.0,IMU,163204692,0,-0.1792271,0.04091247,1.04439,2.051476,0.03042396,-9.617824,0,0,33.31742,1,1,1000,1000
214328,57:19.0,IMU,163244676,0,-0.1819457,0.04913945,1.045412,2.04744,-0.03244321,-9.608924,0,0,33.31898,1,1,1000,1000
214379,57:19.1,IMU,163284660,0,-0.1820357,0.05531855,1.046976,2.038173,-0.09594466,-9.60648,0,0,33.32053,1,1,1000,1000
214431,57:19.1,IMU,163324644,0,-0.1824067,0.06243653,1.048531,2.021951,-0.1635609,-9.612923,0,0,33.32209,1,1,1000,1000
214531,57:19.2,IMU,163364628,0,-0.1842051,0.0672792,1.050087,2.000107,-0.2344232,-9.614519,0,0,33.32365,1,1,1000,1000
214585,57:19.2,IMU,163404612,0,-0.1811182,0.06907094,1.051637,1.972041,-0.3086734,-9.603245,0,0,33.3252,1,1,1000,1000
214685,57:19.2,IMU,163444596,0,-0.1765988,0.07021172,1.053212,1.938761,-0.385983,-9.604776,0,0,33.32676,1,1,1000,1000
214739,57:19.3,IMU,163484580,0,-0.1705553,0.06929081,1.054437,1.901037,-0.4623436,-9.603394,0,0,33.32832,1,1,1000,1000
214792,57:19.3,IMU,163525397,0,-0.1639914,0.06787484,1.055512,1.859985,-0.5439816,-9.616071,0,0,33.32991,1,1,1000,1000
214893,57:19.4,IMU,163565381,0,-0.1558194,0.06927831,1.056393,1.813026,-0.6245167,-9.615246,0,0,33.33147,1,1,1000,1000
214947,57:19.4,IMU,163605365,0,-0.146307,0.06427042,1.05688,1.764114,-0.7066549,-9.624751,0,0,33.33302,1,1,1000,1000
215047,57:19.4,IMU,163645349,0,-0.1349271,0.0593974,1.057142,1.710409,-0.7857829,-9.622511,0,0,33.33458,1,1,1000,1000
215099,57:19.5,IMU,163685333,0,-0.1262667,0.05903688,1.057378,1.653694,-0.8683363,-9.618511,0,0,33.33614,1,1,1000,1000
215151,57:19.5,IMU,163725317,0,-0.1190523,0.05611074,1.057414,1.595062,-0.9488015,-9.627611,0,0,33.33769,1,1,1000,1000
215250,57:19.6,IMU,163765301,0,-0.1098211,0.05320779,1.057321,1.533155,-1.028437,-9.637075,0,0,33.33924,1,1,1000,1000
215304,57:19.6,IMU,163805285,0,-0.1000309,0.04911362,1.057088,1.470309,-1.106876,-9.638247,0,0,33.3408,1,1,1000,1000
215403,57:19.6,IMU,163845269,0,-0.09032782,0.04534844,1.056784,1.404406,-1.183017,-9.640665,0,0,33.34235,1,1,1000,1000
215454,57:19.7,IMU,163885253,0,-0.08170633,0.0419646,1.056561,1.337952,-1.258912,-9.642301,0,0,33.34391,1,1,1000,1000
215506,57:19.7,IMU,163925237,0,-0.07385945,0.0387472,1.056286,1.269955,-1.332592,-9.642811,0,0,33.34546,1,1,1000,1000
215605,57:19.8,IMU,163965221,0,-0.06283842,0.03178477,1.056248,1.201974,-1.401672,-9.647806,0,0,33.34698,1,1,1000,1000
215659,57:19.8,IMU,164005205,0,-0.05232133,0.02490847,1.056422,1.133363,-1.471278,-9.657543,0,0,33.34853,1,1,1000,1000
215760,57:19.8,IMU,164045189,0,-0.04208438,0.01936454,1.056527,1.064009,-1.535888,-9.657228,0,0,33.35009,1,1,1000,1000
215811,57:19.9,IMU,164085173,0,-0.03236484,0.01046887,1.056784,0.9932197,-1.597786,-9.653907,0,0,33.35164,1,1,1000,1000
215863,57:19.9,IMU,164125157,0,-0.02429495,0.001085914,1.057032,0.9224991,-1.656155,-9.65602,0,0,33.35319,1,1,1000,1000
215963,57:20.0,IMU,164165141,0,-0.01652784,-0.009059056,1.057183,0.8527414,-1.713255,-9.659792,0,0,33.35474,1,1,1000,1000
216017,57:20.0,IMU,164205125,0,-0.009586119,-0.01977837,1.057261,0.7830706,-1.76625,-9.645136,0,0,33.3563,1,1,1000,1000
216115,57:20.0,IMU,164245109,0,-5.7e-05,-0.02943876,1.056711,0.7142949,-1.814329,-9.650039,0,0,33.35785,1,1,1000,1000
216166,57:20.1,IMU,164285093,0,0.00668435,-0.03816241,1.047405,0.6474466,-1.860772,-9.644326,0,0,33.3594,1,1,1000,1000
216218,57:20.1,IMU,164325077,0,0.01176997,-0.04520546,1.017864,0.5810154,-1.903366,-9.641013,0,0,33.36095,1,1,1000,1000
216317,57:20.2,IMU,164365061,0,0.01603214,-0.05036806,0.9629537,0.5197368,-1.939766,-9.63646,0,0,33.36254,1,1,1000,1000
216371,57:20.2,IMU,164405045,0,0.01897242,-0.05173652,0.8837587,0.4610898,-1.969637,-9.632987,0,0,33.3641,1,1,1000,1000
216471,57:20.2,IMU,164445029,0,0.01973073,-0.04830828,0.7855415,0.4090907,-1.989461,-9.629948,0,0,33.36565,1,1,1000,1000
216525,57:20.3,IMU,164485013,0,0.02089966,-0.04013149,0.6746947,0.3657097,-2.005293,-9.627041,0,0,33.3672,1,1,1000,1000
216578,57:20.3,IMU,164524997,0,0.02125398,-0.02763954,0.5576971,0.330101,-2.016713,-9.624506,0,0,33.36871,1,1,1000,1000
216679,57:20.4,IMU,164564981,0,0.02211305,-0.01109199,0.4406541,0.3022882,-2.023231,-9.627829,0,0,33.37026,1,1,1000,1000
216733,57:20.4,IMU,164604965,0,0.02210722,0.005022711,0.3281295,0.279414,-2.028154,-9.625292,0,0,33.37181,1,1,1000,1000
216833,57:20.4,IMU,164644949,0,0.02346759,0.02639063,0.2237601,0.2656299,-2.031289,-9.633354,0,0,33.37336,1,1,1000,1000
216885,57:20.5,IMU,164684933,0,0.02372614,0.04743557,0.130372,0.256311,-2.031111,-9.638807,0,0,33.37491,1,1,1000,1000
216937,57:20.5,IMU,164724917,0,0.02407232,0.06579499,0.04948291,0.2534759,-2.031838,-9.646194,0,0,33.37646,1,1,1000,1000
217036,57:20.6,IMU,164764901,0,0.02408751,0.08156204,-0.01802909,0.2547035,-2.029501,-9.654652,0,0,33.37801,1,1,1000,1000
217090,57:20.6,IMU,164804885,0,0.02399808,0.09255332,-0.07231469,0.2607961,-2.027641,-9.662152,0,0,33.37956,1,1,1000,1000
217189,57:20.6,IMU,164844869,0,0.02343047,0.1004621,-0.113453,0.2685204,-2.024044,-9.670829,0,0,33.38111,1,1,1000,1000
217240,57:20.7,IMU,164884853,0,0.02143022,0.1056169,-0.1426747,0.2810955,-2.018715,-9.678361,0,0,33.38266,1,1,1000,1000
217292,57:20.7,IMU,164924837,0,0.01925599,0.1091976,-0.1614828,0.2932324,-2.014729,-9.69101,0,0,33.38421,1,1,1000,1000
217391,57:20.8,IMU,164964821,0,0.01830441,0.1118604,-0.1710737,0.3098654,-2.008992,-9.701558,0,0,33.38576,1,1,1000,1000
217445,57:20.8,IMU,165004805,0,0.01647723,0.1139608,-0.1732794,0.3257544,-2.003785,-9.715487,0,0,33.38731,1,1,1000,1000
217547,57:20.8,IMU,165044789,0,0.01432661,0.1148735,-0.1694257,0.341188,-1.998219,-9.726624,0,0,33.38885,1,1,1000,1000
217598,57:20.9,IMU,165084773,0,0.01100464,0.1146455,-0.1610489,0.3578817,-1.993295,-9.737346,0,0,33.3904,1,1,1000,1000
217650,57:20.9,IMU,165124757,0,0.008392686,0.114843,-0.1495163,0.3739255,-1.98766,-9.750817,0,0,33.39195,1,1,1000,1000
217750,57:21.0,IMU,165164741,0,0.00741843,0.1145122,-0.1360034,0.3906941,-1.981708,-9.763905,0,0,33.3935,1,1,1000,1000
217804,57:21.0,IMU,165204725,0,0.005138829,0.1138439,-0.1216937,0.4076456,-1.977451,-9.772355,0,0,33.39504,1,1,1000,1000
217902,57:21.0,IMU,165244709,0,0.004104555,0.113455,-0.1074346,0.4236746,-1.973076,-9.788166,0,0,33.39659,1,1,1000,1000
217953,57:21.1,IMU,165284693,0,0.002884902,0.1160764,-0.09397244,0.4386147,-1.968077,-9.801395,0,0,33.39814,1,1,1000,1000
218005,57:21.1,IMU,165324677,0,0.002899952,0.1146799,-0.08165022,0.4551953,-1.966683,-9.81294,0,0,33.39968,1,1,1000,1000
218104,57:21.2,IMU,165364661,0,0.002867861,0.1172084,-0.07134199,0.4689513,-1.963721,-9.830322,0,0,33.40123,1,1,1000,1000
218158,57:21.2,IMU,165404645,0,-0.00134688,0.1195445,-0.06304623,0.4841525,-1.959046,-9.84289,0,0,33.40278,1,1,1000,1000
218258,57:21.2,IMU,165444629,0,-0.005283258,0.118991,-0.05683552,0.4992124,-1.957952,-9.853395,0,0,33.40432,1,1,1000,1000
218312,57:21.3,IMU,165484613,0,-0.009125611,0.1204533,-0.05294876,0.5142176,-1.95495,-9.863403,0,0,33.40587,1,1,1000,1000
218364,57:21.3,IMU,165524597,0,-0.009636186,0.121306,-0.05139512,0.5305622,-1.952995,-9.875237,0,0,33.40742,1,1,1000,1000
218466,57:21.4,IMU,165564581,0,-0.007055374,0.1233486,-0.05229442,0.5465141,-1.950559,-9.890079,0,0,33.40896,1,1,1000,1000
218520,57:21.4,IMU,165605398,0,-0.00905619,0.1246561,-0.05586837,0.5642917,-1.948145,-9.90385,0,0,33.41055,1,1,1000,1000
218620,57:21.4,IMU,165645382,0,-0.009024875,0.1253325,-0.06194799,0.5811311,-1.943683,-9.916852,0,0,33.41209,1,1,1000,1000
218673,57:21.5,IMU,165685366,0,-0.009152172,0.1269721,-0.0707089,0.600346,-1.940137,-9.929963,0,0,33.41364,1,1,1000,1000
218726,57:21.5,IMU,165725350,0,-0.01093889,0.1286078,-0.08237164,0.6208606,-1.93599,-9.943443,0,0,33.41518,1,1,1000,1000
218825,57:21.6,IMU,165765334,0,-0.01107947,0.1295214,-0.09763782,0.6438657,-1.931759,-9.956776,0,0,33.41673,1,1,1000,1000
218879,57:21.6,IMU,165805318,0,-0.01165435,0.1324241,-0.1173616,0.6668175,-1.925541,-9.970467,0,0,33.41827,1,1,1000,1000
218978,57:21.6,IMU,165845302,0,-0.01314794,0.131317,-0.1426773,0.6932484,-1.917928,-9.982363,0,0,33.41982,1,1,1000,1000
219029,57:21.7,IMU,165885286,0,-0.01563631,0.1304165,-0.1756483,0.7220061,-1.90767,-9.995214,0,0,33.42136,1,1,1000,1000
219081,57:21.7,IMU,165925270,0,-0.01677261,0.1264168,-0.2098023,0.7530152,-1.897849,-10.00688,0,0,33.4229,1,1,1000,1000
219180,57:21.8,IMU,165965254,0,-0.01739725,0.1221607,-0.2277336,0.7904055,-1.884951,-10.02033,0,0,33.42445,1,1,1000,1000
219234,57:21.8,IMU,166005238,0,-0.01769852,0.1103709,-0.2187461,0.8287332,-1.872672,-10.03823,0,0,33.42599,1,1,1000,1000
219334,57:21.8,IMU,166045222,0,-0.01900635,0.1038296,-0.1877334,0.8627202,-1.858943,-10.043,0,0,33.42749,1,1,1000,1000
219386,57:21.9,IMU,166085206,0,-0.02317303,0.0961069,-0.1427541,0.8972478,-1.845154,-10.05653,0,0,33.42904,1,1,1000,1000
219441,57:21.9,IMU,166125190,0,-0.02256363,0.0877239,-0.09154034,0.930441,-1.836915,-10.06682,0,0,33.43058,1,1,1000,1000
219541,57:22.0,IMU,166165174,0,-0.02309072,0.07898816,-0.03930171,0.9584321,-1.830353,-10.07673,0,0,33.43212,1,1,1000,1000
219595,57:22.0,IMU,166205158,0,-0.02161703,0.07379057,0.01044135,0.9819573,-1.825141,-10.07436,0,0,33.43366,1,1,1000,1000
219693,57:22.0,IMU,166245142,0,-0.02026771,0.07089722,0.05555535,1.002172,-1.824912,-10.08688,0,0,33.4352,1,1,1000,1000
219744,57:22.1,IMU,166285126,0,-0.02268865,0.06921564,0.09476926,1.019943,-1.827246,-10.0944,0,0,33.43674,1,1,1000,1000
219796,57:22.1,IMU,166325110,0,-0.02274394,0.06553859,0.1275048,1.035661,-1.831248,-10.10046,0,0,33.43829,1,1,1000,1000
219895,57:22.2,IMU,166365094,0,-0.02108769,0.06061261,0.1538678,1.048427,-1.837165,-10.10521,0,0,33.43983,1,1,1000,1000
219949,57:22.2,IMU,166405078,0,-0.01872919,0.05478603,0.1740146,1.058302,-1.84538,-10.11215,0,0,33.44137,1,1,1000,1000
220049,57:22.2,IMU,166445062,0,-0.01735009,0.04820176,0.1880092,1.069662,-1.854579,-10.12058,0,0,33.44295,1,1,1000,1000
220103,57:22.3,IMU,166485046,0,-0.01671586,0.04184366,0.1892609,1.077521,-1.864988,-10.12247,0,0,33.44449,1,1,1000,1000
220155,57:22.3,IMU,166525030,0,-0.01521626,0.03755358,0.1657489,1.087909,-1.873013,-10.13228,0,0,33.44603,1,1,1000,1000
220256,57:22.4,IMU,166565014,0,-0.01338469,0.03258409,0.1114349,1.099719,-1.877629,-10.13816,0,0,33.44757,1,1,1000,1000
220311,57:22.4,IMU,166604998,0,-0.01163545,0.03345602,0.0238997,1.116005,-1.875466,-10.14519,0,0,33.44907,1,1,1000,1000
220410,57:22.4,IMU,166644982,0,-0.01085378,0.03142868,-0.09536746,1.138615,-1.86353,-10.15044,0,0,33.45061,1,1,1000,1000
220463,57:22.5,IMU,166684966,0,-0.01283973,0.0342602,-0.2437195,1.17114,-1.841523,-10.16595,0,0,33.45216,1,1,1000,1000
220515,57:22.5,IMU,166724950,0,-0.01548111,0.03657168,-0.4117403,1.219584,-1.80657,-10.17406,0,0,33.45369,1,1,1000,1000
220614,57:22.6,IMU,166764934,0,-0.02002353,0.03843741,-0.581147,1.285177,-1.763966,-10.18409,0,0,33.45523,1,1,1000,1000
220668,57:22.6,IMU,166804918,0,-0.0221616,0.04172402,-0.7374165,1.36869,-1.712151,-10.18773,0,0,33.45677,1,1,1000,1000
220767,57:22.6,IMU,166844902,0,-0.02687958,0.04553749,-0.8729572,1.465436,-1.647225,-10.19591,0,0,33.45831,1,1,1000,1000
220818,57:22.7,IMU,166884886,0,-0.03369314,0.0496638,-0.9848596,1.572111,-1.569067,-10.19755,0,0,33.45985,1,1,1000,1000
220870,57:22.7,IMU,166924870,0,-0.04004452,0.05714928,-1.07213,1.686747,-1.478577,-10.20785,0,0,33.46139,1,1,1000,1000
220969,57:22.8,IMU,166964854,0,-0.04606608,0.06369552,-1.137204,1.80456,-1.379024,-10.21123,0,0,33.46293,1,1,1000,1000
221023,57:22.8,IMU,167004838,0,-0.05353647,0.06943102,-1.182871,1.923299,-1.272115,-10.21412,0,0,33.46447,1,1,1000,1000
221123,57:22.8,IMU,167044822,0,-0.06034184,0.07547973,-1.212419,2.036078,-1.159765,-10.21792,0,0,33.466,1,1,999,999
221175,57:22.9,IMU,167084806,0,-0.06829305,0.08050878,-1.229061,2.146191,-1.042299,-10.21886,0,0,33.46754,1,1,999,999
221227,57:22.9,IMU,167124790,0,-0.07511175,0.08599321,-1.235674,2.248909,-0.9237269,-10.22361,0,0,33.46908,1,1,999,999
221329,57:23.0,IMU,167164774,0,-0.07939596,0.08981203,-1.234628,2.345426,-0.805401,-10.22623,0,0,33.47062,1,1,999,999
221383,57:23.0,IMU,167204758,0,-0.08206512,0.09291481,-1.228216,2.430801,-0.6893326,-10.22653,0,0,33.47215,1,1,999,999
221483,57:23.0,IMU,167244742,0,-0.08262726,0.09267916,-1.218011,2.506409,-0.5750702,-10.22807,0,0,33.47369,1,1,999,999
221534,57:23.1,IMU,167284726,0,-0.07882245,0.09068474,-1.205163,2.573198,-0.4642146,-10.22518,0,0,33.47523,1,1,999,999
221586,57:23.1,IMU,167324710,0,-0.07370009,0.08221593,-1.190958,2.62928,-0.3586056,-10.23172,0,0,33.47676,1,1,999,999
221685,57:23.2,IMU,167364694,0,-0.06237249,0.07542662,-1.176214,2.67269,-0.2570375,-10.23361,0,0,33.4783,1,1,999,999
221739,57:23.2,IMU,167404678,0,-0.04988032,0.0734994,-1.161626,2.707978,-0.1607538,-10.23265,0,0,33.47984,1,1,999,999
221839,57:23.2,IMU,167444662,0,-0.03557698,0.06901316,-1.1472,2.730752,-0.0703271,-10.22537,0,0,33.48137,1,1,999,999
221893,57:23.3,IMU,167484646,0,-0.02109525,0.06488284,-1.133579,2.742647,0.01476028,-10.22748,0,0,33.48291,1,1,999,999
221946,57:23.3,IMU,167524630,0,-0.003970297,0.05973902,-1.120794,2.74372,0.1020116,-10.22464,0,0,33.48444,1,1,999,999
222047,57:23.4,IMU,167564614,0,0.01013438,0.0559784,-1.109273,2.735852,0.1982111,-10.22842,0,0,33.48598,1,1,999,999
222102,57:23.4,IMU,167604598,0,0.02641016,0.05257671,-1.098689,2.717041,0.3014673,-10.22917,0,0,33.48751,1,1,999,999
222201,57:23.4,IMU,167644582,0,0.0367364,0.04868883,-1.089564,2.689198,0.412037,-10.23111,0,0,33.48905,1,1,999,999
222254,57:23.5,IMU,167685399,0,0.04706573,0.04211611,-1.081474,2.651109,0.5293639,-10.21914,0,0,33.49062,1,1,999,999
222307,57:23.5,IMU,167725383,0,0.05357699,0.03644571,-1.074528,2.604856,0.6524837,-10.22405,0,0,33.49216,1,1,999,999
222406,57:23.6,IMU,167765367,0,0.05317709,0.0375904,-1.068947,2.548517,0.7772869,-10.21358,0,0,33.49369,1,1,999,999
222460,57:23.6,IMU,167805351,0,0.05153177,0.03461883,-1.064111,2.485922,0.905845,-10.20572,0,0,33.49522,1,1,999,999
222559,57:23.6,IMU,167845335,0,0.04594442,0.02990299,-1.060513,2.41511,1.039191,-10.19062,0,0,33.49676,1,1,999,999
222610,57:23.7,IMU,167885319,0,0.04319707,0.02378296,-1.057672,2.338836,1.172529,-10.18076,0,0,33.49829,1,1,999,999
222662,57:23.7,IMU,167925303,0,0.04011104,0.0143194,-1.055463,2.255053,1.308821,-10.16498,0,0,33.49982,1,1,999,999
222761,57:23.8,IMU,167965287,0,0.03381425,0.007624769,-1.053539,2.167154,1.445368,-10.16342,0,0,33.50136,1,1,999,999
222815,57:23.8,IMU,168005271,0,0.02576177,0.004387271,-1.05228,2.072639,1.58144,-10.15114,0,0,33.50289,1,1,999,999
222915,57:23.8,IMU,168045255,0,0.01968356,-0.003848357,-1.051297,1.974069,1.716437,-10.12312,0,0,33.50443,1,1,1000,1000
222966,57:23.9,IMU,168085239,0,0.01257483,-0.01132424,-1.050851,1.872283,1.850158,-10.10605,0,0,33.50596,1,1,1000,1000
223019,57:23.9,IMU,168125223,0,0.004408624,-0.01745725,-1.050617,1.76851,1.977282,-10.08722,0,0,33.50745,1,1,1000,1000
223119,57:24.0,IMU,168165207,0,-0.003046425,-0.02125428,-1.05077,1.660463,2.104563,-10.0671,0,0,33.50898,1,1,1000,1000
223173,57:24.0,IMU,168205191,0,-0.007729329,-0.0263208,-1.050843,1.5506,2.228829,-10.04343,0,0,33.51051,1,1,1000,1000
223271,57:24.0,IMU,168245175,0,-0.0111737,-0.0327059,-1.051075,1.438309,2.347005,-10.01899,0,0,33.51205,1,1,1000,1000
223322,57:24.1,IMU,168285159,0,-0.01392118,-0.03689955,-1.051139,1.32434,2.46035,-9.991475,0,0,33.51358,1,1,1000,1000
223374,57:24.1,IMU,168325143,0,-0.02083807,-0.04059124,-1.051529,1.2106,2.567153,-9.96714,0,0,33.51511,1,1,1000,1000
223474,57:24.2,IMU,168365127,0,-0.03015236,-0.04426577,-1.052093,1.097414,2.670148,-9.938485,0,0,33.51664,1,1,1000,1000
223528,57:24.2,IMU,168405111,0,-0.03584947,-0.04234958,-1.052008,0.9830958,2.763916,-9.913834,0,0,33.51817,1,1,1000,1000
223628,57:24.2,IMU,168445095,0,-0.0377531,-0.0395366,-1.051835,0.8696376,2.850865,-9.883971,0,0,33.5197,1,1,1000,1000
223682,57:24.3,IMU,168485079,0,-0.03819283,-0.03931049,-1.051643,0.759782,2.930384,-9.851349,0,0,33.52123,1,1,1000,1000
223734,57:24.3,IMU,168525063,0,-0.04278316,-0.04001069,-1.051723,0.6493437,3.001728,-9.826873,0,0,33.5228,1,1,1000,1000
223835,57:24.4,IMU,168565047,0,-0.04570759,-0.03630813,-1.051647,0.5434489,3.063626,-9.793988,0,0,33.52433,1,1,1000,1000
223889,57:24.4,IMU,168605031,0,-0.05239626,-0.02761649,-1.051007,0.4386379,3.116637,-9.75395,0,0,33.52586,1,1,1000,1000
223990,57:24.4,IMU,168645015,0,-0.05520334,-0.02395837,-1.050521,0.3385193,3.159844,-9.733018,0,0,33.52739,1,1,1000,1000
224043,57:24.5,IMU,168684999,0,-0.05423677,-0.01654269,-1.049848,0.2423337,3.195101,-9.712489,0,0,33.52888,1,1,1000,1000
224095,57:24.5,IMU,168724983,0,-0.0528157,-0.007816128,-1.049301,0.1495515,3.218804,-9.687629,0,0,33.53041,1,1,1000,1000
224194,57:24.6,IMU,168764967,0,-0.05420455,-0.000522976,-1.049039,0.06241868,3.235507,-9.669181,0,0,33.53194,1,1,1000,1000
224248,57:24.6,IMU,168804951,0,-0.05432046,0.009032113,-1.048752,-0.01977056,3.242479,-9.652226,0,0,33.53347,1,1,1000,1000
224347,57:24.6,IMU,168844935,0,-0.05195026,0.02008288,-1.048599,-0.1077934,3.238183,-9.634692,0,0,33.535,1,1,1000,1000
224399,57:24.7,IMU,168884919,0,-0.05219884,0.03344273,-1.048461,-0.2028926,3.225368,-9.615906,0,0,33.53653,1,1,1000,1000
224451,57:24.7,IMU,168924903,0,-0.05118053,0.04836216,-1.048425,-0.30589,3.203215,-9.621132,0,0,33.53806,1,1,1000,1000
224550,57:24.8,IMU,168964887,0,-0.04533683,0.05826121,-1.048674,-0.4179675,3.171396,-9.6028,0,0,33.53959,1,1,1000,1000
224604,57:24.8,IMU,169004871,0,-0.04326191,0.0643875,-1.048897,-0.5352587,3.130037,-9.601643,0,0,33.54111,1,1,1000,1000
224705,57:24.8,IMU,169044855,0,-0.0413702,0.07163212,-1.049452,-0.6594874,3.081933,-9.593059,0,0,33.54264,1,1,1000,1000
224756,57:24.9,IMU,169084839,0,-0.03554558,0.07842466,-1.049871,-0.7904694,3.022679,-9.579367,0,0,33.54417,1,1,1000,1000
224808,57:24.9,IMU,169124823,0,-0.02898778,0.08238655,-1.050385,-0.9267718,2.956437,-9.594307,0,0,33.5457,1,1,1000,1000
224908,57:25.0,IMU,169164807,0,-0.02535522,0.08597805,-1.050934,-1.066885,2.88263,-9.580004,0,0,33.54723,1,1,1000,1000
224963,57:25.0,IMU,169204791,0,-0.01735168,0.08802443,-1.051342,-1.211993,2.801748,-9.570274,0,0,33.54875,1,1,1000,1000
225061,57:25.0,IMU,169244775,0,-0.00910057,0.08540112,-1.052071,-1.359563,2.714186,-9.570942,0,0,33.55028,1,1,1000,1000
225112,57:25.1,IMU,169284759,0,-0.001001546,0.08341983,-1.052528,-1.509305,2.620737,-9.562582,0,0,33.5518,1,1,1000,1000
225165,57:25.1,IMU,169324743,0,0.003711172,0.0768012,-1.052654,-1.658199,2.520716,-9.55458,0,0,33.55333,1,1,1000,1000
225264,57:25.2,IMU,169364727,0,0.01015358,0.07223676,-1.046399,-1.80943,2.418267,-9.544733,0,0,33.55486,1,1,1000,1000
225318,57:25.2,IMU,169404711,0,0.01641851,0.06332447,-1.020802,-1.957001,2.312128,-9.530613,0,0,33.55638,1,1,1000,1000
225418,57:25.2,IMU,169444695,0,0.02205758,0.05899293,-0.9682851,-2.098461,2.207178,-9.520583,0,0,33.55791,1,1,1000,1000
225472,57:25.3,IMU,169484679,0,0.02926689,0.0541727,-0.8891312,-2.227534,2.105708,-9.508357,0,0,33.55943,1,1,1000,1000
225524,57:25.3,IMU,169524663,0,0.03317621,0.04856461,-0.788711,-2.342957,2.012108,-9.494658,0,0,33.56096,1,1,1000,1000
225625,57:25.4,IMU,169564647,0,0.03666904,0.04383653,-0.6741176,-2.440838,1.929996,-9.477819,0,0,33.56248,1,1,1000,1000
225679,57:25.4,IMU,169604631,0,0.03994766,0.03880811,-0.553168,-2.522885,1.860177,-9.457932,0,0,33.56401,1,1,1000,1000
225779,57:25.4,IMU,169644615,0,0.04153719,0.03453635,-0.4327576,-2.589972,1.807282,-9.436091,0,0,33.56553,1,1,1000,1000
225832,57:25.5,IMU,169684599,0,0.04133935,0.03154296,-0.3183186,-2.640738,1.768527,-9.414558,0,0,33.56705,1,1,1000,1000
225885,57:25.5,IMU,169724583,0,0.04143,0.02889262,-0.2139305,-2.680854,1.742967,-9.39985,0,0,33.56858,1,1,1000,1000
225984,57:25.6,IMU,169765400,0,0.04070794,0.02748431,-0.1203281,-2.708492,1.730319,-9.378505,0,0,33.57014,1,1,1000,1000
226038,57:25.6,IMU,169805384,0,0.03958935,0.02805872,-0.04329693,-2.725542,1.725795,-9.355803,0,0,33.57167,1,1,1000,1000
226136,57:25.6,IMU,169845368,0,0.03675456,0.02763863,0.01863916,-2.732456,1.733323,-9.338454,0,0,33.57319,1,1,1000,1000
226188,57:25.7,IMU,169885352,0,0.03351614,0.02846899,0.06631455,-2.736171,1.745418,-9.321566,0,0,33.57471,1,1,1000,1000
226240,57:25.7,IMU,169925336,0,0.03028513,0.02988153,0.100701,-2.732598,1.762186,-9.303957,0,0,33.57624,1,1,1000,1000
226339,57:25.8,IMU,169965320,0,0.02708801,0.02861103,0.1232076,-2.724531,1.782536,-9.28933,0,0,33.57776,1,1,1000,1000
226393,57:25.8,IMU,170005304,0,0.02354219,0.02646983,0.1353446,-2.716306,1.804481,-9.275635,0,0,33.57928,1,1,1000,1000
226493,57:25.8,IMU,170045288,0,0.02113605,0.02214375,0.1390143,-2.703892,1.826037,-9.264943,0,0,33.58081,1,1,1000,1000
226544,57:25.9,IMU,170085272,0,0.01938123,0.01646138,0.1361095,-2.692131,1.847823,-9.252882,0,0,33.58233,1,1,1000,1000
226596,57:25.9,IMU,170125256,0,0.01792956,0.008422682,0.1278811,-2.680486,1.869412,-9.247761,0,0,33.58385,1,1,1000,1000
226696,57:26.0,IMU,170165240,0,0.01623252,-0.000492517,0.1160981,-2.668447,1.88805,-9.240943,0,0,33.58537,1,1,1000,1000
226751,57:26.0,IMU,170205224,0,0.0147507,-0.008836927,0.1023289,-2.656607,1.905388,-9.239101,0,0,33.58686,1,1,1000,1000
226849,57:26.0,IMU,170245208,0,0.0114432,-0.01992405,0.08703303,-2.64668,1.921531,-9.241051,0,0,33.58838,1,1,1000,1000
226900,57:26.1,IMU,170285192,0,0.01226215,-0.01872206,0.07154731,-2.638099,1.932911,-9.22815,0,0,33.5899,1,1,1000,1000
226952,57:26.1,IMU,170325176,0,0.01097618,-0.01502233,0.0568699,-2.632051,1.944038,-9.240093,0,0,33.59142,1,1,1000,1000
227052,57:26.2,IMU,170365160,0,0.009896081,-0.008853666,0.04320529,-2.625961,1.952143,-9.229402,0,0,33.59294,1,1,1000,1000
227106,57:26.2,IMU,170405144,0,0.006741169,-0.001847648,0.03117467,-2.625848,1.958979,-9.232653,0,0,33.59446,1,1,1000,1000
227206,57:26.2,IMU,170445128,0,0.004097902,0.008897295,0.02104098,-2.626086,1.962995,-9.221052,0,0,33.59599,1,1,1000,1000
227260,57:26.3,IMU,170485112,0,0.001815455,0.02578129,0.01280966,-2.629,1.964687,-9.213065,0,0,33.5975,1,1,1000,1000
227312,57:26.3,IMU,170525096,0,0.000489854,0.03854886,0.006527622,-2.63538,1.966533,-9.214562,0,0,33.59903,1,1,1000,1000
227413,57:26.4,IMU,170565080,0,0.001466813,0.04823908,0.001958651,-2.640196,1.96641,-9.201579,0,0,33.60054,1,1,1000,1000
227467,57:26.4,IMU,170605064,0,-0.000455817,0.05754195,-0.001060641,-2.64809,1.966413,-9.193295,0,0,33.6021,1,1,1000,1000
227566,57:26.4,IMU,170645048,0,-0.00189951,0.07050583,-0.00269795,-2.657123,1.965083,-9.176399,0,0,33.60362,1,1,1000,1000
227619,57:26.5,IMU,170685032,0,-0.003929399,0.07185606,-0.003429956,-2.664468,1.962628,-9.166496,0,0,33.60514,1,1,1000,1000
227672,57:26.5,IMU,170725016,0,-0.003047058,0.07792982,-0.003196382,-2.672583,1.961217,-9.162073,0,0,33.60666,1,1,1000,1000
227771,57:26.6,IMU,170765000,0,-0.00467377,0.0790361,-0.002278922,-2.678123,1.960481,-9.145876,0,0,33.60818,1,1,1000,1000
227825,57:26.6,IMU,170804984,0,-0.002416755,0.08029328,-0.000976274,-2.684055,1.958273,-9.130087,0,0,33.60966,1,1,1000,1000
227923,57:26.6,IMU,170844968,0,-0.007232958,0.08140852,0.000812294,-2.689564,1.957052,-9.111271,0,0,33.61118,1,1,1000,1000
227975,57:26.7,IMU,170884952,0,-0.006491076,0.08255499,0.002499911,-2.691803,1.956156,-9.109121,0,0,33.6127,1,1,1000,1000
228027,57:26.7,IMU,170924936,0,-0.008819393,0.08435614,0.00447789,-2.694888,1.954877,-9.092363,0,0,33.61422,1,1,1000,1000
228126,57:26.8,IMU,170964920,0,-0.006372454,0.08469439,0.006100588,-2.69562,1.954784,-9.077563,0,0,33.61573,1,1,1000,1000
228180,57:26.8,IMU,171004904,0,-0.00818445,0.08540376,0.007889224,-2.696437,1.954599,-9.065714,0,0,33.61725,1,1,1000,1000
228281,57:26.8,IMU,171044888,0,-0.007730667,0.0874691,0.009360827,-2.698234,1.953282,-9.052901,0,0,33.61877,1,1,1000,1000
228332,57:26.9,IMU,171084872,0,-0.01015223,0.09040397,0.01078847,-2.695949,1.954017,-9.044403,0,0,33.62029,1,1,1000,1000
228384,57:26.9,IMU,171124856,0,-0.009530034,0.09239683,0.01193091,-2.69343,1.95474,-9.031217,0,0,33.6218,1,1,1000,1000
228483,57:27.0,IMU,171164840,0,-0.009913066,0.09297407,0.01294129,-2.689472,1.955654,-9.021278,0,0,33.62332,1,1,1000,1000
228539,57:27.0,IMU,171204824,0,-0.008478213,0.09401919,0.01357871,-2.688359,1.956604,-9.009224,0,0,33.62484,1,1,1000,1000
228639,57:27.0,IMU,171244808,0,-0.00999165,0.09389623,0.01422867,-2.680659,1.957879,-8.997508,0,0,33.62635,1,1,1000,1000
228690,57:27.1,IMU,171284792,0,-0.01122043,0.09946621,0.01487749,-2.676833,1.957782,-8.986511,0,0,33.62787,1,1,1000,1000
228742,57:27.1,IMU,171324776,0,-0.01041705,0.09762111,0.01526864,-2.669998,1.959634,-8.975414,0,0,33.62939,1,1,1000,1000
228841,57:27.2,IMU,171364760,0,-0.01257456,0.1000947,0.01548848,-2.661249,1.961604,-8.966974,0,0,33.63091,1,1,1000,1000
228895,57:27.2,IMU,171404744,0,-0.009389834,0.1001809,0.01556279,-2.655508,1.961407,-8.954795,0,0,33.63242,1,1,1000,1000
228995,57:27.2,IMU,171444728,0,-0.01211759,0.1022025,0.01567746,-2.647346,1.964263,-8.947546,0,0,33.63393,1,1,1000,1000
229049,57:27.3,IMU,171484712,0,-0.01260577,0.09952246,0.01567408,-2.636646,1.964385,-8.937843,0,0,33.63545,1,1,1000,1000
229101,57:27.3,IMU,171524696,0,-0.01486389,0.0991252,0.01574212,-2.626461,1.966948,-8.927977,0,0,33.63696,1,1,1000,1000
229202,57:27.4,IMU,171564680,0,-0.01708084,0.09502261,0.01542714,-2.615275,1.967613,-8.916463,0,0,33.63848,1,1,1000,1000
229256,57:27.4,IMU,171604664,0,-0.01986918,0.08893181,0.01503015,-2.603481,1.970497,-8.904997,0,0,33.64,1,1,1000,1000
229354,57:27.4,IMU,171644648,0,-0.02161156,0.0761357,0.01413875,-2.58839,1.96998,-8.889981,0,0,33.64151,1,1,1000,1000
229406,57:27.5,IMU,171684632,0,-0.02698459,0.06970878,0.01333618,-2.572246,1.969726,-8.870901,0,0,33.64302,1,1,1000,1000
229462,57:27.5,IMU,171724616,0,-0.03143041,0.05520808,0.01174296,-2.556321,1.971924,-8.85778,0,0,33.64454,1,1,1000,1000
229561,57:27.6,IMU,171764600,0,-0.03404969,0.04884766,0.009984439,-2.538222,1.97239,-8.838482,0,0,33.64605,1,1,1000,1000
229615,57:27.6,IMU,171804584,0,-0.03724831,0.04094131,0.007737041,-2.521644,1.972312,-8.825725,0,0,33.64756,1,1,1000,1000
229713,57:27.6,IMU,171845401,0,-0.0389659,0.03497539,0.004821447,-2.502247,1.97127,-8.806126,0,0,33.64912,1,1,1000,1000
229765,57:27.7,IMU,171885385,0,-0.04220118,0.03563696,0.002080281,-2.484459,1.971728,-8.789736,0,0,33.65063,1,1,1000,1000
229817,57:27.7,IMU,171925369,0,-0.04420526,0.03255185,-0.001169749,-2.466364,1.971705,-8.769444,0,0,33.65214,1,1,1000,1000
229916,57:27.8,IMU,171965353,0,-0.04532803,0.02946945,-0.004576606,-2.449808,1.971082,-8.758378,0,0,33.65366,1,1,1000,1000
229970,57:27.8,IMU,172005337,0,-0.04488234,0.02893752,-0.007926763,-2.434079,1.970093,-8.73719,0,0,33.65517,1,1,1000,1000
230070,57:27.8,IMU,172045321,0,-0.04600957,0.03098729,-0.01146926,-2.417475,1.969053,-8.7164,0,0,33.65668,1,1,999,999
230122,57:27.9,IMU,172085305,0,-0.04815624,0.03139264,-0.01502745,-2.403199,1.969615,-8.704722,0,0,33.6582,1,1,999,999
230174,57:27.9,IMU,172125289,0,-0.04948137,0.03220082,-0.01846786,-2.38802,1.96825,-8.688278,0,0,33.65971,1,1,999,999
230275,57:28.0,IMU,172165273,0,-0.04880923,0.03423934,-0.02202929,-2.374246,1.967041,-8.669456,0,0,33.66122,1,1,999,999
230331,57:28.0,IMU,172205257,0,-0.04803994,0.03548836,-0.02560568,-2.361139,1.965911,-8.651104,0,0,33.66273,1,1,999,999
230429,57:28.0,IMU,172245241,0,-0.04891339,0.03545209,-0.02929755,-2.347984,1.964648,-8.636173,0,0,33.66424,1,1,999,999
230480,57:28.1,IMU,172285225,0,-0.05129232,0.03510312,-0.03279214,-2.33637,1.963437,-8.624067,0,0,33.66571,1,1,999,999
230532,57:28.1,IMU,172325209,0,-0.05162533,0.03589832,-0.03645856,-2.324306,1.961116,-8.601164,0,0,33.66722,1,1,999,999
230632,57:28.2,IMU,172365193,0,-0.05169313,0.0383137,-0.0401742,-2.313494,1.960034,-8.582024,0,0,33.66874,1,1,999,999
230686,57:28.2,IMU,172405177,0,-0.05182037,0.03959227,-0.04391183,-2.301957,1.95841,-8.565698,0,0,33.67025,1,1,999,999
230786,57:28.2,IMU,172445161,0,-0.05218393,0.03893981,-0.0478294,-2.291813,1.957521,-8.551462,0,0,33.67176,1,1,999,999
230841,57:28.3,IMU,172485145,0,-0.053963,0.04087428,-0.05172336,-2.283042,1.955745,-8.533348,0,0,33.67327,1,1,999,999
230893,57:28.3,IMU,172525129,0,-0.05556579,0.0426058,-0.05571355,-2.274969,1.953613,-8.512625,0,0,33.67478,1,1,999,999
230994,57:28.4,IMU,172565113,0,-0.0552481,0.04426224,-0.05981125,-2.264976,1.952474,-8.492944,0,0,33.67629,1,1,999,999
231048,57:28.4,IMU,172605097,0,-0.05538746,0.04170586,-0.06426714,-2.257651,1.949925,-8.474616,0,0,33.6778,1,1,999,999
231147,57:28.4,IMU,172645081,0,-0.05542482,0.03726465,-0.06887481,-2.24999,1.948188,-8.459303,0,0,33.67931,1,1,999,999
231199,57:28.5,IMU,172685065,0,-0.05645915,0.0291911,-0.07367513,-2.24131,1.943015,-8.43861,0,0,33.68085,1,1,999,999
231254,57:28.5,IMU,172725049,0,-0.05637202,0.01840939,-0.07895924,-2.234596,1.944323,-8.42982,0,0,33.68237,1,1,999,999
231353,57:28.6,IMU,172765033,0,-0.05605463,0.006285483,-0.084751,-2.226821,1.940049,-8.411936,0,0,33.68387,1,1,999,999
231407,57:28.6,IMU,172805017,0,-0.05467609,-0.009977516,-0.09079793,-2.219151,1.938754,-8.397921,0,0,33.68538,1,1,999,999
231505,57:28.6,IMU,172845001,0,-0.05425418,-0.02301086,-0.09705116,-2.212434,1.935716,-8.384651,0,0,33.68689,1,1,999,999
231557,57:28.7,IMU,172884985,0,-0.05455732,-0.0344261,-0.1034978,-2.205177,1.934446,-8.375957,0,0,33.68836,1,1,999,999
231609,57:28.7,IMU,172924969,0,-0.05416684,-0.04460355,-0.110161,-2.200552,1.930897,-8.367827,0,0,33.68987,1,1,999,999
231708,57:28.8,IMU,172964953,0,-0.05264821,-0.05731163,-0.1171022,-2.194991,1.927802,-8.358077,0,0,33.69138,1,1,999,999
231762,57:28.8,IMU,173004937,0,-0.05122739,-0.07209919,-0.1241842,-2.19259,1.92417,-8.344943,0,0,33.69289,1,1,999,999
231863,57:28.8,IMU,173044921,0,-0.05048774,-0.08829788,-0.1312473,-2.18889,1.919769,-8.342122,0,0,33.69439,1,1,1000,1000
231914,57:28.9,IMU,173084905,0,-0.04560121,-0.1055724,-0.1385934,-2.187981,1.918537,-8.346216,0,0,33.6959,1,1,1000,1000
231966,57:28.9,IMU,173124889,0,-0.04237506,-0.1207474,-0.1456389,-2.186579,1.912626,-8.343067,0,0,33.69741,1,1,1000,1000
232065,57:29.0,IMU,173164873,0,-0.0419855,-0.1369678,-0.1525396,-2.18714,1.908657,-8.342124,0,0,33.69891,1,1,1000,1000
232119,57:29.0,IMU,173204857,0,-0.03709548,-0.1505016,-0.1593396,-2.188958,1.904537,-8.339496,0,0,33.70042,1,1,1000,1000
232219,57:29.0,IMU,173244841,0,-0.0348172,-0.1586403,-0.1653345,-2.195154,1.899477,-8.355581,0,0,33.70193,1,1,1000,1000
232270,57:29.1,IMU,173284825,0,-0.03452212,-0.1646223,-0.1705728,-2.201812,1.894818,-8.356915,0,0,33.70343,1,1,1000,1000
232322,57:29.1,IMU,173324809,0,-0.03209921,-0.1706297,-0.175522,-2.207001,1.888718,-8.362601,0,0,33.70494,1,1,1000,1000
232421,57:29.2,IMU,173364793,0,-0.03052796,-0.177491,-0.1797387,-2.217025,1.88277,-8.364519,0,0,33.70644,1,1,1000,1000
232478,57:29.2,IMU,173404777,0,-0.02365936,-0.1839663,-0.1833552,-2.229444,1.876688,-8.373327,0,0,33.70795,1,1,1000,1000
232578,57:29.2,IMU,173444761,0,-0.02365061,-0.1888735,-0.1859445,-2.243366,1.870007,-8.383622,0,0,33.70946,1,1,1000,1000
232632,57:29.3,IMU,173484745,0,-0.02171589,-0.1909754,-0.187732,-2.257758,1.863407,-8.389842,0,0,33.71096,1,1,1000,1000
232684,57:29.3,IMU,173524729,0,-0.01937146,-0.1925713,-0.1888904,-2.274797,1.857265,-8.39763,0,0,33.71246,1,1,1000,1000
232785,57:29.4,IMU,173564713,0,-0.01615476,-0.1962087,-0.1893462,-2.292955,1.851489,-8.40765,0,0,33.71397,1,1,1000,1000
232839,57:29.4,IMU,173604697,0,-0.01336236,-0.196542,-0.1890348,-2.313279,1.843294,-8.413856,0,0,33.71548,1,1,1000,1000
232937,57:29.4,IMU,173644681,0,-0.01103423,-0.1972958,-0.1879586,-2.334935,1.836217,-8.422199,0,0,33.71698,1,1,1000,1000
232989,57:29.5,IMU,173684665,0,-0.008692827,-0.2007943,-0.1863677,-2.357586,1.828141,-8.431276,0,0,33.71848,1,1,1000,1000
233043,57:29.5,IMU,173724649,0,-0.009231595,-0.2042451,-0.184111,-2.38102,1.821174,-8.439564,0,0,33.71999,1,1,1000,1000
233143,57:29.6,IMU,173764633,0,-0.003724064,-0.2064265,-0.1815197,-2.405817,1.813442,-8.447462,0,0,33.72149,1,1,1000,1000
233197,57:29.6,IMU,173804617,0,-0.001958398,-0.2120418,-0.1783832,-2.432513,1.807621,-8.455422,0,0,33.723,1,1,1000,1000
233295,57:29.6,IMU,173844601,0,-0.001621292,-0.2126432,-0.1745196,-2.459327,1.801499,-8.461206,0,0,33.7245,1,1,1000,1000
233347,57:29.7,IMU,173884585,0,0.002767026,-0.2161955,-0.1705881,-2.488193,1.793661,-8.474201,0,0,33.72601,1,1,1000,1000
233399,57:29.7,IMU,173925402,0,0.004603797,-0.2198614,-0.1659765,-2.518085,1.788865,-8.48328,0,0,33.72754,1,1,1000,1000
233498,57:29.8,IMU,173965386,0,0.004884817,-0.2192072,-0.161135,-2.547075,1.780189,-8.485166,0,0,33.72905,1,1,1000,1000
233552,57:29.8,IMU,174005370,0,0.008347991,-0.2202922,-0.1561392,-2.577525,1.775121,-8.493435,0,0,33.73055,1,1,1000,1000
233653,57:29.8,IMU,174045354,0,0.01158469,-0.2251174,-0.1509852,-2.608896,1.768776,-8.509013,0,0,33.73205,1,1,1000,1000
233704,57:29.9,IMU,174085338,0,0.01119181,-0.2283609,-0.1455486,-2.640039,1.762752,-8.506946,0,0,33.73355,1,1,1000,1000
233756,57:29.9,IMU,174125322,0,0.01166573,-0.2317327,-0.1401363,-2.673856,1.757618,-8.519112,0,0,33.73506,1,1,1000,1000
233855,57:30.0,IMU,174165306,0,0.01573494,-0.2011754,-0.133833,-2.706708,1.751773,-8.526768,0,0,33.73656,1,1,1000,1000
233909,57:30.0,IMU,174205290,0,0.01858022,-0.1622743,-0.1268434,-2.744969,1.746851,-8.533844,0,0,33.73806,1,1,1000,1000
234008,57:30.0,IMU,174245274,0,0.02071751,-0.1274224,-0.1193934,-2.787182,1.743192,-8.551228,0,0,33.73956,1,1,1000,1000
234060,57:30.1,IMU,174285258,0,0.02191732,-0.09893428,-0.1117435,-2.831228,1.739016,-8.554943,0,0,33.74106,1,1,1000,1000
234112,57:30.1,IMU,174325242,0,0.02377643,-0.07611559,-0.1038206,-2.875654,1.735501,-8.556086,0,0,33.74256,1,1,1000,1000
234211,57:30.2,IMU,174365226,0,0.02596508,-0.06122519,-0.0960057,-2.920455,1.731749,-8.557796,0,0,33.74403,1,1,1000,1000
234265,57:30.2,IMU,174405210,0,0.02923655,-0.05018478,-0.08818904,-2.965405,1.728405,-8.557762,0,0,33.74553,1,1,1000,1000
234365,57:30.2,IMU,174445194,0,0.03070835,-0.03830461,-0.08061228,-3.010302,1.72541,-8.555019,0,0,33.74703,1,1,1000,1000
234419,57:30.3,IMU,174485178,0,0.02928716,-0.02962169,-0.07326056,-3.053227,1.721883,-8.538462,0,0,33.74853,1,1,1000,1000
234471,57:30.3,IMU,174525162,0,0.02942794,-0.02554204,-0.06629477,-3.096418,1.719466,-8.536937,0,0,33.75003,1,1,1000,1000
234572,57:30.4,IMU,174565146,0,0.03157334,-0.02207309,-0.05989402,-3.139274,1.718026,-8.533857,0,0,33.75153,1,1,1000,1000
234626,57:30.4,IMU,174605130,0,0.0352585,-0.01937806,-0.0541395,-3.181183,1.717836,-8.533064,0,0,33.75303,1,1,1000,1000
234724,57:30.4,IMU,174645114,0,0.03768303,-0.01687324,-0.04898115,-3.219923,1.716502,-8.521049,0,0,33.75453,1,1,1000,1000
234777,57:30.5,IMU,174685098,0,0.03881484,-0.01499307,-0.04428207,-3.259634,1.71631,-8.517534,0,0,33.75603,1,1,1000,1000
234831,57:30.5,IMU,174725082,0,0.0385672,-0.01634611,-0.04016207,-3.299226,1.715922,-8.51391,0,0,33.75753,1,1,1000,1000
234931,57:30.6,IMU,174765066,0,0.04112737,-0.014775,-0.03649693,-3.335414,1.716265,-8.508941,0,0,33.75906,1,1,1000,1000
234985,57:30.6,IMU,174805050,0,0.0438566,-0.01421741,-0.03295475,-3.370604,1.716678,-8.507709,0,0,33.76056,1,1,1000,1000
235083,57:30.6,IMU,174845034,0,0.0454956,-0.01533408,-0.02967807,-3.406712,1.716457,-8.511447,0,0,33.76206,1,1,1000,1000
235135,57:30.7,IMU,174885018,0,0.04682073,-0.01612788,-0.02684842,-3.44147,1.718206,-8.516319,0,0,33.76356,1,1,1000,1000
235187,57:30.7,IMU,174925002,0,0.04733047,-0.0139493,-0.02420203,-3.474607,1.718925,-8.518312,0,0,33.76505,1,1,1000,1000
235286,57:30.8,IMU,174964986,0,0.04579878,-0.01203308,-0.02166083,-3.507537,1.718993,-8.521828,0,0,33.76652,1,1,1000,1000
235340,57:30.8,IMU,175004970,0,0.04430711,-0.01488078,-0.01949283,-3.539642,1.720744,-8.530226,0,0,33.76801,1,1,1000,1000
235441,57:30.8,IMU,175044954,0,0.04344732,-0.01641086,-0.01761096,-3.571943,1.721209,-8.54286,0,0,33.76951,1,1,1000,1000
235492,57:30.9,IMU,175084938,0,0.0465644,-0.01416022,-0.01607677,-3.601186,1.721932,-8.546455,0,0,33.77101,1,1,1000,1000
235544,57:30.9,IMU,175124922,0,0.04899528,-0.01261872,-0.01459875,-3.633388,1.722476,-8.557314,0,0,33.77251,1,1,1000,1000
235643,57:31.0,IMU,175164906,0,0.04940838,-0.01545534,-0.01325829,-3.661936,1.723232,-8.564052,0,0,33.774,1,1,1000,1000
235697,57:31.0,IMU,175204890,0,0.04722843,-0.01597541,-0.01177306,-3.691491,1.724148,-8.585503,0,0,33.7755,1,1,1000,1000
235796,57:31.0,IMU,175244874,0,0.0471194,-0.01384591,-0.01065238,-3.719264,1.722829,-8.587318,0,0,33.777,1,1,1000,1000
235851,57:31.1,IMU,175284858,0,0.04453805,-0.01195114,-0.009331048,-3.744075,1.723341,-8.590025,0,0,33.7785,1,1,1000,1000
235903,57:31.1,IMU,175324842,0,0.04006239,-0.01037898,-0.007703929,-3.772301,1.72123,-8.597245,0,0,33.77999,1,1,1000,1000
236003,57:31.2,IMU,175364826,0,0.03584222,-0.008889065,-0.006122456,-3.797589,1.720263,-8.596018,0,0,33.78149,1,1,1000,1000
236057,57:31.2,IMU,175404810,0,0.03210742,-0.009128513,-0.004811615,-3.821692,1.717769,-8.599455,0,0,33.78298,1,1,1000,1000
236157,57:31.2,IMU,175444794,0,0.02879842,-0.008888017,-0.003840613,-3.846718,1.715299,-8.603657,0,0,33.78448,1,1,1000,1000
236211,57:31.3,IMU,175484778,0,0.02582116,-0.00737872,-0.003018819,-3.870914,1.713607,-8.604956,0,0,33.78597,1,1,1000,1000
236263,57:31.3,IMU,175524762,0,0.02397442,-0.007694817,-0.002624746,-3.892537,1.711609,-8.608202,0,0,33.78747,1,1,1000,1000
236364,57:31.4,IMU,175564746,0,0.02264452,-0.00650721,-0.002171654,-3.916867,1.709059,-8.607503,0,0,33.78896,1,1,1000,1000
236418,57:31.4,IMU,175604730,0,0.02218622,-0.005487477,-0.001818025,-3.937468,1.704389,-8.603194,0,0,33.79045,1,1,1000,1000
236516,57:31.4,IMU,175644714,0,0.02445886,-0.00460545,-0.001578906,-3.958173,1.702119,-8.601096,0,0,33.79195,1,1,1000,1000
236568,57:31.5,IMU,175684698,0,0.02473965,-0.003833701,-0.001162723,-3.981226,1.698742,-8.606217,0,0,33.79345,1,1,1000,1000
236621,57:31.5,IMU,175724682,0,0.02488593,-0.002695729,-0.001048771,-4.000757,1.696482,-8.614999,0,0,33.79494,1,1,1000,1000
236721,57:31.6,IMU,175764666,0,0.02307657,-0.002014617,-0.000769184,-4.020965,1.694289,-8.613253,0,0,33.79643,1,1,1000,1000
236776,57:31.6,IMU,175804650,0,0.02160451,-0.00166988,-0.000693258,-4.04025,1.690384,-8.612936,0,0,33.79793,1,1,1000,1000
236874,57:31.6,IMU,175844634,0,0.02040422,-0.001305371,-0.000634224,-4.060416,1.687225,-8.619888,0,0,33.79942,1,1,1000,1000
236926,57:31.7,IMU,175884618,0,0.01932894,-0.000608225,-0.000648878,-4.078925,1.682452,-8.619552,0,0,33.80091,1,1,1000,1000
236978,57:31.7,IMU,175924602,0,0.01698094,-0.000280473,-0.000571543,-4.096505,1.679193,-8.621187,0,0,33.80241,1,1,1000,1000
237077,57:31.8,IMU,175964586,0,0.01453813,5.206173e-05,-0.000391261,-4.115584,1.674734,-8.621416,0,0,33.8039,1,1,1000,1000
237131,57:31.8,IMU,176005403,0,0.01317995,0.000314872,-5.64e-05,-4.133062,1.669454,-8.620237,0,0,33.80543,1,1,1000,1000
237232,57:31.8,IMU,176045387,0,0.01195962,0.000527123,0.000129235,-4.149271,1.666,-8.618626,0,0,33.80692,1,1,1000,1000
237283,57:31.9,IMU,176085371,0,0.01102807,-0.001383858,0.000278111,-4.166893,1.661783,-8.632412,0,0,33.80841,1,1,1000,1000
237335,57:31.9,IMU,176125355,0,0.009299903,-0.002257765,0.00059584,-4.182611,1.658285,-8.638613,0,0,33.80991,1,1,1000,1000
237434,57:32.0,IMU,176165339,0,0.005632398,-0.001114948,0.001128448,-4.198083,1.653809,-8.637884,0,0,33.8114,1,1,1000,1000
237488,57:32.0,IMU,176205323,0,0.00548531,0.002733552,0.001447983,-4.213543,1.648941,-8.640637,0,0,33.81289,1,1,1000,1000
237587,57:32.0,IMU,176245307,0,0.005115455,0.002623891,0.001598229,-4.226633,1.644942,-8.637612,0,0,33.81438,1,1,1000,1000
237638,57:32.1,IMU,176285291,0,0.00356805,0.002618578,0.001744177,-4.241208,1.641219,-8.636045,0,0,33.81587,1,1,1000,1000
237691,57:32.1,IMU,176325275,0,0.001431062,0.002590125,0.002290391,-4.25684,1.636822,-8.644771,0,0,33.81736,1,1,1000,1000
237790,57:32.2,IMU,176365259,0,0.0030089,0.003455027,0.002607641,-4.271064,1.633319,-8.656187,0,0,33.81886,1,1,1000,1000
237844,57:32.2,IMU,176405243,0,0.002859039,0.004352939,0.002841464,-4.283435,1.629247,-8.65328,0,0,33.82034,1,1,1000,1000
237944,57:32.2,IMU,176445227,0,0.001005267,0.00155485,0.003006579,-4.295878,1.623627,-8.654758,0,0,33.8218,1,1,1000,1000
237998,57:32.3,IMU,176485211,0,-0.002292088,0.001799395,0.003300626,-4.307876,1.6227,-8.655765,0,0,33.82329,1,1,1000,1000
238050,57:32.3,IMU,176525195,0,-0.005548373,0.001913039,0.003840261,-4.319315,1.618224,-8.659027,0,0,33.82478,1,1,1000,1000
238151,57:32.4,IMU,176565179,0,-0.003531322,0.004540831,0.004275001,-4.331168,1.613655,-8.663729,0,0,33.82627,1,1,1000,1000
238205,57:32.4,IMU,176605163,0,-0.004979128,0.005957058,0.004761815,-4.343279,1.61095,-8.669743,0,0,33.82776,1,1,1000,1000
238303,57:32.4,IMU,176645147,0,-0.00741043,0.006779515,0.004916037,-4.353744,1.606366,-8.672466,0,0,33.82925,1,1,1000,1000
238356,57:32.5,IMU,176685131,0,-0.007409523,0.006274845,0.005145618,-4.365478,1.604837,-8.672687,0,0,33.83074,1,1,1000,1000
238409,57:32.5,IMU,176725115,0,-0.01027801,0.005925695,0.005771151,-4.374768,1.599538,-8.674005,0,0,33.83223,1,1,1000,1000
238509,57:32.6,IMU,176765099,0,-0.008650577,0.006455441,0.0059643,-4.385539,1.597173,-8.681313,0,0,33.83372,1,1,1000,1000
238563,57:32.6,IMU,176805083,0,-0.01130139,0.006854633,0.00606051,-4.395086,1.593556,-8.684298,0,0,33.83521,1,1,1000,1000
238662,57:32.6,IMU,176845067,0,-0.01193444,0.006337647,0.00624513,-4.404069,1.591731,-8.686511,0,0,33.83669,1,1,1000,1000
238714,57:32.7,IMU,176885051,0,-0.008827339,0.006449872,0.0063279,-4.413358,1.59018,-8.688542,0,0,33.83822,1,1,1000,1000
238766,57:32.7,IMU,176925035,0,-0.008578975,0.004483737,0.006238779,-4.422659,1.586947,-8.699142,0,0,33.83971,1,1,1000,1000
238865,57:32.8,IMU,176965019,0,-0.009998643,0.004299705,0.006171109,-4.429878,1.58483,-8.699492,0,0,33.84119,1,1,1000,1000
238919,57:32.8,IMU,177005003,0,-0.01078224,0.005076577,0.006349531,-4.437705,1.583186,-8.705721,0,0,33.84268,1,1,1000,1000
239019,57:32.8,IMU,177044987,0,-0.01066349,0.005961852,0.006504964,-4.446572,1.581055,-8.706581,0,0,33.84413,1,1,999,999
239070,57:32.9,IMU,177084971,0,-0.009153821,0.005086029,0.006425894,-4.452868,1.57937,-8.710158,0,0,33.84562,1,1,999,999
239122,57:32.9,IMU,177124955,0,-0.00806751,0.004690996,0.006072908,-4.45999,1.577378,-8.708005,0,0,33.84711,1,1,999,999
239221,57:33.0,IMU,177164939,0,-0.007206064,0.006720619,0.006193633,-4.466159,1.577376,-8.713388,0,0,33.84859,1,1,999,999
239275,57:33.0,IMU,177204923,0,-0.008893053,0.006668842,0.006273325,-4.475546,1.574248,-8.724636,0,0,33.85008,1,1,999,999
239375,57:33.0,IMU,177244907,0,-0.007530899,0.008851736,0.006072865,-4.481032,1.572948,-8.721931,0,0,33.85157,1,1,999,999
239427,57:33.1,IMU,177284891,0,-0.006615479,0.00801545,0.005893336,-4.486347,1.572798,-8.718732,0,0,33.85305,1,1,999,999
239480,57:33.1,IMU,177324875,0,-0.005701854,0.00687665,0.005892552,-4.492938,1.571589,-8.722757,0,0,33.85454,1,1,999,999
239580,57:33.2,IMU,177364859,0,-0.008709243,0.006472586,0.006156835,-4.499315,1.57151,-8.73549,0,0,33.85603,1,1,999,999
239634,57:33.2,IMU,177404843,0,-0.00719543,0.007108927,0.006053486,-4.503077,1.569579,-8.728872,0,0,33.85751,1,1,999,999
239734,57:33.2,IMU,177444827,0,-0.006138733,0.004829391,0.005695961,-4.508961,1.56985,-8.728343,0,0,33.859,1,1,999,999
239788,57:33.3,IMU,177484811,0,-0.006381641,0.00464634,0.005632512,-4.51282,1.56836,-8.731035,0,0,33.86048,1,1,999,999
239840,57:33.3,IMU,177524795,0,-0.006890126,0.004811474,0.005776412,-4.519982,1.569042,-8.742262,0,0,33.86197,1,1,999,999
239941,57:33.4,IMU,177564779,0,-0.005627468,0.004325574,0.005797165,-4.521947,1.568156,-8.737046,0,0,33.86345,1,1,999,999
239995,57:33.4,IMU,177604763,0,-0.004710771,0.006263965,0.005611773,-4.526645,1.56755,-8.73632,0,0,33.86494,1,1,999,999
240093,57:33.4,IMU,177644747,0,-0.004615014,0.005799733,0.005371727,-4.531122,1.56793,-8.733738,0,0,33.86642,1,1,999,999
240145,57:33.5,IMU,177684731,0,-0.005917474,0.005191772,0.005525215,-4.535247,1.567229,-8.736547,0,0,33.8679,1,1,999,999
240198,57:33.5,IMU,177724715,0,-0.005016902,0.003617188,0.005326804,-4.539252,1.567749,-8.744245,0,0,33.86939,1,1,999,999
240298,57:33.6,IMU,177764699,0,-0.004409836,0.004492458,0.00516394,-4.542794,1.566197,-8.736767,0,0,33.87087,1,1,999,999
240352,57:33.6,IMU,177804683,0,-0.006524995,0.005845161,0.005308467,-4.545506,1.56731,-8.734208,0,0,33.87236,1,1,999,999
240451,57:33.6,IMU,177844667,0,-0.005391701,0.003356602,0.005022513,-4.548347,1.566069,-8.734347,0,0,33.87384,1,1,999,999
240503,57:33.7,IMU,177884651,0,-0.004467406,0.003320151,0.004831791,-4.550287,1.567064,-8.727639,0,0,33.87532,1,1,999,999
240555,57:33.7,IMU,177924635,0,-0.003648873,0.003195749,0.004579362,-4.552923,1.566724,-8.720087,0,0,33.87681,1,1,999,999
240654,57:33.8,IMU,177964619,0,-0.002951266,0.003138439,0.004480621,-4.555008,1.566992,-8.715504,0,0,33.87829,1,1,999,999
240709,57:33.8,IMU,178004603,0,-0.002328475,0.003103869,0.004293784,-4.557859,1.567845,-8.710752,0,0,33.87978,1,1,999,999
240809,57:33.8,IMU,178044587,0,-0.001702301,0.005148286,0.004129567,-4.560387,1.566511,-8.706571,0,0,33.88126,1,1,1000,1000
240860,57:33.9,IMU,178085404,0,-0.00166979,0.006671794,0.004019758,-4.56351,1.569068,-8.715039,0,0,33.88277,1,1,1000,1000
240912,57:33.9,IMU,178125388,0,-0.000323718,0.006279435,0.003863797,-4.565054,1.569847,-8.708097,0,0,33.88426,1,1,1000,1000
241011,57:34.0,IMU,178165372,0,-0.000332375,0.00526215,0.003684499,-4.567453,1.568972,-8.70337,0,0,33.88574,1,1,1000,1000
241065,57:34.0,IMU,178205356,0,-0.000124145,0.005746393,0.003596072,-4.569212,1.568994,-8.697678,0,0,33.88722,1,1,1000,1000
241163,57:34.0,IMU,178245340,0,0.000191108,0.004690824,0.003417756,-4.57112,1.570009,-8.694413,0,0,33.8887,1,1,1000,1000
241215,57:34.1,IMU,178285324,0,0.002239982,0.002910324,0.003179592,-4.573519,1.569954,-8.690108,0,0,33.89019,1,1,1000,1000
241267,57:34.1,IMU,178325308,0,0.003442184,0.002614894,0.003113711,-4.574024,1.568998,-8.684011,0,0,33.89167,1,1,1000,1000
241367,57:34.2,IMU,178365292,0,0.002896728,0.002463373,0.003082238,-4.575075,1.571059,-8.677873,0,0,33.89315,1,1,1000,1000
241421,57:34.2,IMU,178405276,0,0.001403017,0.00268303,0.00333682,-4.576933,1.570878,-8.671432,0,0,33.89463,1,1,1000,1000
241521,57:34.2,IMU,178445260,0,0.001455951,0.001902373,0.003097202,-4.579529,1.571504,-8.669156,0,0,33.89611,1,1,1000,1000
241575,57:34.3,IMU,178485244,0,0.002303663,0.001283382,0.002910993,-4.581421,1.572424,-8.666681,0,0,33.89759,1,1,1000,1000
241627,57:34.3,IMU,178525228,0,0.003753708,0.001330177,0.002717069,-4.580977,1.572525,-8.661165,0,0,33.89903,1,1,1000,1000
241728,57:34.4,IMU,178565212,0,0.002447262,0.002738167,0.002695188,-4.583374,1.572455,-8.654748,0,0,33.90051,1,1,1000,1000
241782,57:34.4,IMU,178605196,0,0.000759728,0.00425138,0.002747335,-4.582895,1.573746,-8.647459,0,0,33.90199,1,1,1000,1000
241880,57:34.4,IMU,178645180,0,0.001600894,0.00218244,0.002606458,-4.584425,1.572966,-8.639291,0,0,33.90347,1,1,1000,1000
241933,57:34.5,IMU,178685164,0,0.001019741,0.002280933,0.002875842,-4.586451,1.573014,-8.642434,0,0,33.90495,1,1,1000,1000
241986,57:34.5,IMU,178725148,0,0.001304996,0.002317701,0.002995312,-4.587815,1.574757,-8.638787,0,0,33.90643,1,1,1000,1000
242086,57:34.6,IMU,178765132,0,0.005179552,0.002396703,0.002917106,-4.587861,1.574378,-8.632421,0,0,33.90791,1,1,1000,1000
242140,57:34.6,IMU,178805116,0,0.002276904,0.002349301,0.003173057,-4.589235,1.574867,-8.626713,0,0,33.90939,1,1,1000,1000
242238,57:34.6,IMU,178845100,0,0.002336538,0.002403406,0.00310433,-4.588332,1.575515,-8.623898,0,0,33.91087,1,1,1000,1000
242291,57:34.7,IMU,178885084,0,0.00424429,0.001178233,0.002946642,-4.590668,1.576143,-8.625666,0,0,33.91235,1,1,1000,1000
242343,57:34.7,IMU,178925068,0,0.004015301,0.000441921,0.002600322,-4.591841,1.577337,-8.624596,0,0,33.91383,1,1,1000,1000
242442,57:34.8,IMU,178965052,0,0.003810509,0.002620555,0.002462904,-4.592287,1.578524,-8.619184,0,0,33.91534,1,1,1000,1000
242496,57:34.8,IMU,179005036,0,0.003654844,0.00075824,0.002339507,-4.593345,1.577401,-8.612303,0,0,33.91682,1,1,1000,1000
242596,57:34.8,IMU,179045020,0,0.003536117,0.001083898,0.002403844,-4.593415,1.578269,-8.609015,0,0,33.9183,1,1,999,999
242647,57:34.9,IMU,179085004,0,0.003436565,0.00119249,0.002440657,-4.594589,1.578728,-8.606359,0,0,33.91977,1,1,999,999
242699,57:34.9,IMU,179124988,0,0.003311605,0.001341621,0.002378509,-4.594217,1.57916,-8.60248,0,0,33.92121,1,1,999,999
242798,57:35.0,IMU,179164972,0,0.005062878,0.001529277,0.002334262,-4.596996,1.579588,-8.601668,0,0,33.92269,1,1,999,999
242852,57:35.0,IMU,179204956,0,0.005605268,0.001687555,0.002267994,-4.596812,1.579604,-8.598992,0,0,33.92416,1,1,999,999
242950,57:35.0,IMU,179244940,0,0.007940093,0.001775204,0.002084299,-4.597335,1.58137,-8.597483,0,0,33.92564,1,1,999,999
243004,57:35.1,IMU,179284924,0,0.00993433,0.001857525,0.00191023,-4.598791,1.582046,-8.596243,0,0,33.92712,1,1,999,999
243056,57:35.1,IMU,179324908,0,0.009022742,0.00195631,0.002006323,-4.599802,1.582107,-8.59374,0,0,33.9286,1,1,999,999
243157,57:35.2,IMU,179364892,0,0.007933171,0.002009841,0.002070322,-4.600349,1.582635,-8.590261,0,0,33.93007,1,1,999,999
243211,57:35.2,IMU,179404876,0,0.006497238,0.002104111,0.001950351,-4.600038,1.582222,-8.583496,0,0,33.93155,1,1,999,999
243311,57:35.2,IMU,179444860,0,0.007068982,0.002152676,0.001670495,-4.601938,1.582865,-8.585459,0,0,33.93302,1,1,999,999
243365,57:35.3,IMU,179484844,0,0.004836264,0.002187859,0.001844621,-4.602957,1.582895,-8.586954,0,0,33.9345,1,1,999,999
243417,57:35.3,IMU,179524828,0,0.004586856,0.002231878,0.00188433,-4.603797,1.583584,-8.585006,0,0,33.93597,1,1,999,999
243518,57:35.4,IMU,179564812,0,0.00432704,0.002274696,0.001909694,-4.60524,1.583022,-8.583278,0,0,33.93745,1,1,999,999
243572,57:35.4,IMU,179604796,0,0.004184445,0.003087085,0.001983412,-4.606117,1.583257,-8.589292,0,0,33.93892,1,1,999,999
243670,57:35.4,IMU,179644780,0,0.00463746,0.002930915,0.001518959,-4.607611,1.585113,-8.592205,0,0,33.9404,1,1,999,999
243723,57:35.5,IMU,179684764,0,0.00566576,0.002820353,0.001286074,-4.608625,1.583847,-8.593402,0,0,33.94187,1,1,999,999
243776,57:35.5,IMU,179724748,0,0.006770426,0.002783763,0.001218133,-4.609831,1.583971,-8.591473,0,0,33.94335,1,1,999,999
243875,57:35.6,IMU,179764732,0,0.006919529,0.002763962,0.001180802,-4.611883,1.584119,-8.594333,0,0,33.94482,1,1,999,999
243930,57:35.6,IMU,179804716,0,0.003838065,0.003585467,0.001556593,-4.611732,1.58282,-8.596031,0,0,33.9463,1,1,999,999
244028,57:35.6,IMU,179844700,0,0.00455951,0.003619691,0.001777485,-4.613952,1.584235,-8.599114,0,0,33.94777,1,1,999,999
244081,57:35.7,IMU,179884684,0,0.004287603,0.003221561,0.002065727,-4.613298,1.583272,-8.599846,0,0,33.94924,1,1,999,999
244133,57:35.7,IMU,179924668,0,0.004076482,0.003506552,0.002028928,-4.61482,1.583335,-8.598233,0,0,33.95071,1,1,999,999
244233,57:35.8,IMU,179964652,0,0.003923773,0.003373597,0.002095533,-4.615105,1.583674,-8.596512,0,0,33.95219,1,1,999,999
244288,57:35.8,IMU,180004636,0,0.003756992,0.003289135,0.002182178,-4.616003,1.582547,-8.595478,0,0,33.95366,1,1,999,999
244388,57:35.8,IMU,180044620,0,0.003604077,0.003220632,0.002197936,-4.617273,1.582301,-8.59388,0,0,33.95514,1,1,1000,1000
244439,57:35.9,IMU,180084604,0,0.003519678,0.003153642,0.002219226,-4.617045,1.582281,-8.590681,0,0,33.95661,1,1,1000,1000
244491,57:35.9,IMU,180124588,0,0.003426666,0.0030111,0.002248409,-4.616519,1.582753,-8.589714,0,0,33.95808,1,1,1000,1000
244590,57:36.0,IMU,180165405,0,0.00404318,0.00152354,0.002139952,-4.619951,1.582391,-8.608085,0,0,33.95959,1,1,1000,1000
244644,57:36.0,IMU,180205389,0,0.006164655,0.000868436,0.002091057,-4.619883,1.581915,-8.600782,0,0,33.96106,1,1,1000,1000
244742,57:36.0,IMU,180245373,0,0.00559698,0.001216717,0.002121653,-4.62102,1.581545,-8.605135,0,0,33.96253,1,1,1000,1000
244794,57:36.1,IMU,180285357,0,0.004027212,0.003229723,0.00216163,-4.622227,1.583356,-8.606985,0,0,33.964,1,1,1000,1000
244846,57:36.1,IMU,180325341,0,0.004856057,0.003075864,0.002073473,-4.622149,1.583506,-8.610639,0,0,33.96548,1,1,1000,1000
244946,57:36.2,IMU,180365325,0,0.004465922,0.002973231,0.0021238,-4.62298,1.582779,-8.607623,0,0,33.96695,1,1,1000,1000
245001,57:36.2,IMU,180405309,0,0.004250993,0.002938986,0.002196046,-4.622743,1.5826,-8.605959,0,0,33.96842,1,1,1000,1000
245101,57:36.2,IMU,180445293,0,0.004052851,0.002994302,0.002248842,-4.62323,1.582567,-8.60255,0,0,33.96989,1,1,1000,1000
245155,57:36.3,IMU,180485277,0,-0.004741593,0.03177861,0.003757341,-4.626159,1.582123,-8.610651,0,0,33.97136,1,1,1000,1000
245207,57:36.3,IMU,180525261,0,-0.01384583,0.06616568,0.00571669,-4.633044,1.580536,-8.614199,0,0,33.97283,1,1,1000,1000
245308,57:36.4,IMU,180565245,0,-0.01853781,0.09104799,0.007681155,-4.641942,1.579639,-8.619101,0,0,33.9743,1,1,1000,1000
245362,57:36.4,IMU,180605229,0,-0.0231238,0.1149628,0.01005116,-4.649949,1.578395,-8.619074,0,0,33.97573,1,1,1000,1000
245460,57:36.4,IMU,180645213,0,-0.02356579,0.1286875,0.01218809,-4.661893,1.577936,-8.62209,0,0,33.9772,1,1,1000,1000
245513,57:36.5,IMU,180685197,0,-0.02500077,0.1428375,0.01453587,-4.670721,1.575914,-8.619331,0,0,33.97867,1,1,1000,1000
245566,57:36.5,IMU,180725181,0,-0.02414713,0.1509993,0.01669374,-4.679602,1.575661,-8.620184,0,0,33.98014,1,1,1000,1000
245665,57:36.6,IMU,180765165,0,-0.02261434,0.1574531,0.0185695,-4.68526,1.575042,-8.617086,0,0,33.98161,1,1,1000,1000
245720,57:36.6,IMU,180805149,0,-0.02131455,0.1612637,0.0201991,-4.688845,1.576245,-8.615376,0,0,33.98308,1,1,1000,1000
245818,57:36.6,IMU,180845133,0,-0.01831428,0.163006,0.02149706,-4.692979,1.577627,-8.614173,0,0,33.98455,1,1,1000,1000
245870,57:36.7,IMU,180885117,0,-0.01665813,0.1627931,0.02249108,-4.691589,1.579877,-8.6189,0,0,33.98602,1,1,1000,1000
245923,57:36.7,IMU,180925101,0,-0.01355287,0.1618786,0.02304445,-4.690983,1.581692,-8.6248,0,0,33.98749,1,1,1000,1000
246022,57:36.8,IMU,180965085,0,-0.011583,0.1594024,0.02335871,-4.685131,1.585268,-8.622343,0,0,33.98895,1,1,1000,1000
246077,57:36.8,IMU,181005069,0,-0.01055496,0.1556063,0.02332013,-4.678684,1.58907,-8.623045,0,0,33.99042,1,1,1000,1000
246177,57:36.8,IMU,181045053,0,-0.006172392,0.1562951,0.02292862,-4.669574,1.593046,-8.628211,0,0,33.99193,1,1,1000,1000
246228,57:36.9,IMU,181085037,0,-0.004914716,0.1540538,0.02248248,-4.658799,1.597496,-8.637955,0,0,33.99339,1,1,1000,1000
246280,57:36.9,IMU,181125021,0,-0.000767052,0.1515834,0.02176269,-4.647582,1.601699,-8.650277,0,0,33.99486,1,1,1000,1000
246379,57:37.0,IMU,181165005,0,-0.001633103,0.1455294,0.02121079,-4.633368,1.605619,-8.654627,0,0,33.99633,1,1,1000,1000
246433,57:37.0,IMU,181204989,0,0.001775407,0.1415583,0.02010759,-4.618005,1.60937,-8.667116,0,0,33.99776,1,1,1000,1000
246531,57:37.0,IMU,181244973,0,0.003136735,0.1391284,0.01922365,-4.600271,1.615321,-8.68721,0,0,33.99923,1,1,1000,1000
246582,57:37.1,IMU,181284957,0,0.003872741,0.1409549,0.01841071,-4.581658,1.61866,-8.691751,0,0,34.00069,1,1,1000,1000
246635,57:37.1,IMU,181324941,0,0.005934925,0.1392648,0.0175689,-4.563023,1.624388,-8.708002,0,0,34.00216,1,1,1000,1000
246734,57:37.2,IMU,181364925,0,0.006065307,0.138282,0.01674719,-4.544447,1.627814,-8.724066,0,0,34.00362,1,1,1000,1000
246788,57:37.2,IMU,181404909,0,0.00840546,0.1373548,0.01578596,-4.521587,1.632767,-8.737937,0,0,34.00509,1,1,1000,1000
246889,57:37.2,IMU,181444893,0,0.007657711,0.1354338,0.0152762,-4.499788,1.63696,-8.75688,0,0,34.00656,1,1,1000,1000
246943,57:37.3,IMU,181484877,0,0.009037366,0.1388798,0.01478255,-4.475676,1.639984,-8.769241,0,0,34.00803,1,1,1000,1000
246996,57:37.3,IMU,181524861,0,0.007370507,0.1390191,0.01430359,-4.452318,1.64578,-8.789917,0,0,34.00949,1,1,1000,1000
247097,57:37.4,IMU,181564845,0,0.01055887,0.1392506,0.01372749,-4.427999,1.648776,-8.813367,0,0,34.01096,1,1,1000,1000
247151,57:37.4,IMU,181604829,0,0.01318923,0.1371531,0.01319723,-4.400966,1.651959,-8.818954,0,0,34.01242,1,1,1000,1000
247249,57:37.4,IMU,181644813,0,0.01299102,0.1372197,0.01295366,-4.376134,1.657184,-8.847974,0,0,34.01389,1,1,1000,1000
247302,57:37.5,IMU,181684797,0,0.01961244,0.1442177,0.01267434,-4.347714,1.658906,-8.86759,0,0,34.01535,1,1,1000,1000
247355,57:37.5,IMU,181724781,0,0.03030143,0.148395,0.01215775,-4.321771,1.666707,-8.890288,0,0,34.01682,1,1,1000,1000
247454,57:37.6,IMU,181764765,0,0.04134924,0.1543359,0.01208116,-4.293064,1.668387,-8.911749,0,0,34.01828,1,1,1000,1000
247509,57:37.6,IMU,181804749,0,0.0515789,0.1558003,0.0123856,-4.265026,1.672854,-8.937233,0,0,34.01974,1,1,1000,1000
247607,57:37.6,IMU,181844733,0,0.06071983,0.1620858,0.01336813,-4.23591,1.677407,-8.95907,0,0,34.02121,1,1,1000,1000
247659,57:37.7,IMU,181884717,0,0.06905912,0.1694319,0.01489261,-4.204102,1.681736,-8.982295,0,0,34.02267,1,1,1000,1000
247712,57:37.7,IMU,181924701,0,0.07417361,0.1754138,0.01691692,-4.172225,1.68649,-9.009114,0,0,34.02413,1,1,1000,1000
247811,57:37.8,IMU,181964685,0,0.07738891,0.1812929,0.0196386,-4.139962,1.691421,-9.037568,0,0,34.0256,1,1,1000,1000
247865,57:37.8,IMU,182004669,0,0.08199275,0.1857527,0.02302841,-4.106603,1.696056,-9.063107,0,0,34.02706,1,1,1000,1000
247965,57:37.8,IMU,182044653,0,0.08969454,0.190124,0.02688912,-4.069095,1.700552,-9.088928,0,0,34.02852,1,1,999,999
248016,57:37.9,IMU,182084637,0,0.09434326,0.1961559,0.03153279,-4.031969,1.705104,-9.115304,0,0,34.02998,1,1,999,999
248068,57:37.9,IMU,182124621,0,0.09380668,0.2006207,0.03679383,-3.991884,1.708819,-9.139885,0,0,34.03145,1,1,999,999
248167,57:38.0,IMU,182164605,0,0.09745352,0.2039304,0.0425519,-3.952161,1.713937,-9.172845,0,0,34.03291,1,1,999,999
248221,57:38.0,IMU,182204589,0,0.09779899,0.2069336,0.04888073,-3.908453,1.719218,-9.2015,0,0,34.03437,1,1,999,999
248321,57:38.0,IMU,182245406,0,0.09906445,0.2104589,0.05562801,-3.863152,1.724323,-9.234037,0,0,34.03587,1,1,999,999
248373,57:38.1,IMU,182285390,0,0.1013523,0.2171683,0.06291665,-3.815243,1.730565,-9.269547,0,0,34.03733,1,1,999,999
248427,57:38.1,IMU,182325374,0,0.1036707,0.2229732,0.07056523,-3.76568,1.735349,-9.297639,0,0,34.0388,1,1,999,999
248527,57:38.2,IMU,182365358,0,0.1037651,0.2246267,0.07864107,-3.713726,1.739729,-9.330742,0,0,34.04026,1,1,999,999
248581,57:38.2,IMU,182405342,0,0.1043017,0.2254804,0.08728287,-3.661741,1.746321,-9.366138,0,0,34.04172,1,1,999,999
248682,57:38.2,IMU,182445326,0,0.1087669,0.2291085,0.09616759,-3.605956,1.753054,-9.401999,0,0,34.04318,1,1,999,999
248737,57:38.3,IMU,182485310,0,0.1072107,0.2358885,0.1058511,-3.548879,1.760895,-9.436516,0,0,34.04464,1,1,999,999
248789,57:38.3,IMU,182525294,0,0.1080879,0.2411142,0.1157492,-3.487158,1.767451,-9.470949,0,0,34.0461,1,1,999,999
248890,57:38.4,IMU,182565278,0,0.1109589,0.2426084,0.1261335,-3.425086,1.775215,-9.511368,0,0,34.04756,1,1,999,999
248944,57:38.4,IMU,182605262,0,0.1121003,0.2400948,0.1371694,-3.36076,1.783196,-9.549687,0,0,34.04902,1,1,999,999
249042,57:38.4,IMU,182645246,0,0.1131614,0.2358822,0.1487736,-3.291906,1.791252,-9.584923,0,0,34.05048,1,1,999,999
249094,57:38.5,IMU,182685230,0,0.1157189,0.2320004,0.1609402,-3.223538,1.801021,-9.621428,0,0,34.0519,1,1,999,999
249147,57:38.5,IMU,182725214,0,0.1199684,0.2215593,0.174177,-3.153664,1.809929,-9.661211,0,0,34.05336,1,1,999,999
249246,57:38.6,IMU,182765198,0,0.121148,0.2123544,0.188362,-3.077674,1.820334,-9.694626,0,0,34.05482,1,1,999,999
249300,57:38.6,IMU,182805182,0,0.1208204,0.2027058,0.203568,-3.001225,1.829752,-9.726525,0,0,34.05628,1,1,999,999
249399,57:38.6,IMU,182845166,0,0.1223107,0.1962969,0.220011,-2.922103,1.841572,-9.758377,0,0,34.05774,1,1,999,999
249451,57:38.7,IMU,182885150,0,0.1244183,0.1952919,0.2379382,-2.842969,1.851897,-9.789848,0,0,34.0592,1,1,999,999
249503,57:38.7,IMU,182925134,0,0.1262462,0.1947396,0.2574424,-2.759771,1.864823,-9.822525,0,0,34.06066,1,1,999,999
249603,57:38.8,IMU,182965118,0,0.1283388,0.1924832,0.2783774,-2.676113,1.876012,-9.855271,0,0,34.06212,1,1,999,999
249658,57:38.8,IMU,183005102,0,0.1298748,0.1915739,0.3012006,-2.590688,1.89173,-9.886169,0,0,34.06358,1,1,999,999
249758,57:38.8,IMU,183045086,0,0.1319796,0.1922632,0.3260603,-2.503417,1.903942,-9.917595,0,0,34.06503,1,1,1000,1000
249809,57:38.9,IMU,183085070,0,0.1358919,0.1957769,0.3531845,-2.411212,1.919843,-9.947962,0,0,34.06649,1,1,1000,1000
249861,57:38.9,IMU,183125054,0,0.1371794,0.1971585,0.3827945,-2.318628,1.937641,-9.976906,0,0,34.06799,1,1,1000,1000
249960,57:39.0,IMU,183165038,0,0.1388032,0.1938681,0.4148751,-2.225561,1.952839,-10.00805,0,0,34.06944,1,1,1000,1000
250014,57:39.0,IMU,183205022,0,0.1410795,0.1859049,0.4496739,-2.126821,1.971705,-10.03772,0,0,34.0709,1,1,1000,1000
250112,57:39.0,IMU,183245006,0,0.1428756,0.1772886,0.487719,-2.028685,1.988595,-10.06474,0,0,34.07236,1,1,1000,1000
250163,57:39.1,IMU,183284990,0,0.1448287,0.1679216,0.5290285,-1.924194,2.006788,-10.08835,0,0,34.07378,1,1,1000,1000
250218,57:39.1,IMU,183324974,0,0.1459045,0.1551286,0.5739272,-1.818725,2.02622,-10.11099,0,0,34.07523,1,1,1000,1000
250317,57:39.2,IMU,183364958,0,0.1443939,0.1398478,0.6226398,-1.712719,2.046366,-10.13171,0,0,34.07669,1,1,1000,1000
250371,57:39.2,IMU,183404942,0,0.1419906,0.1246423,0.6751654,-1.602472,2.064655,-10.15067,0,0,34.07815,1,1,1000,1000
250471,57:39.2,IMU,183444926,0,0.1425679,0.112793,0.7317389,-1.491938,2.085102,-10.16728,0,0,34.07961,1,1,1000,1000
250526,57:39.3,IMU,183484910,0,0.144293,0.1052189,0.7919418,-1.378079,2.10343,-10.18032,0,0,34.08106,1,1,1000,1000
250578,57:39.3,IMU,183524894,0,0.1444696,0.09547744,0.8525092,-1.261434,2.122466,-10.19375,0,0,34.08252,1,1,1000,1000
250679,57:39.4,IMU,183564878,0,0.1435263,0.08717894,0.9097276,-1.147214,2.140986,-10.20646,0,0,34.08397,1,1,1000,1000
250733,57:39.4,IMU,183604862,0,0.1437302,0.0775284,0.9620791,-1.031916,2.154355,-10.21902,0,0,34.08543,1,1,1000,1000
250831,57:39.4,IMU,183644846,0,0.1432452,0.06810614,1.009933,-0.9182261,2.166591,-10.22923,0,0,34.08688,1,1,1000,1000
250883,57:39.5,IMU,183684830,0,0.1456834,0.06035025,1.051267,-0.8086103,2.17216,-10.23742,0,0,34.08834,1,1,1000,1000
250936,57:39.5,IMU,183724814,0,0.146318,0.0493739,1.085081,-0.7001926,2.169436,-10.24671,0,0,34.08979,1,1,1000,1000
251035,57:39.6,IMU,183764798,0,0.145021,0.03690135,1.111093,-0.5957774,2.163999,-10.25371,0,0,34.09125,1,1,1000,1000
251089,57:39.6,IMU,183804782,0,0.1426454,0.02378244,1.129884,-0.497897,2.148813,-10.26224,0,0,34.0927,1,1,1000,1000
251188,57:39.6,IMU,183844766,0,0.1427603,0.009758753,1.142147,-0.4043833,2.124678,-10.26851,0,0,34.09415,1,1,1000,1000
251240,57:39.7,IMU,183884750,0,0.1449797,-0.002580204,1.149002,-0.3189785,2.093721,-10.27582,0,0,34.09561,1,1,1000,1000
251295,57:39.7,IMU,183924734,0,0.1448575,-0.01780034,1.151135,-0.2396846,2.054847,-10.28031,0,0,34.09706,1,1,1000,1000
251394,57:39.8,IMU,183964718,0,0.1451356,-0.03436274,1.149717,-0.1651831,2.008385,-10.28811,0,0,34.09851,1,1,1000,1000
251450,57:39.8,IMU,184004702,0,0.1420716,-0.05184468,1.145531,-0.09950082,1.95514,-10.29553,0,0,34.09997,1,1,1000,1000
251550,57:39.8,IMU,184044686,0,0.1404875,-0.06795417,1.1395,-0.03851386,1.897271,-10.29914,0,0,34.10143,1,1,999,999
251601,57:39.9,IMU,184084670,0,0.1403374,-0.08254348,1.132127,0.01529684,1.834307,-10.29873,0,0,34.10287,1,1,999,999
251653,57:39.9,IMU,184124654,0,0.1389853,-0.09710906,1.123822,0.06775698,1.766107,-10.30413,0,0,34.10433,1,1,999,999
251752,57:40.0,IMU,184164638,0,0.1337287,-0.1121058,1.114934,0.1181787,1.694225,-10.30452,0,0,34.10578,1,1,999,999
251806,57:40.0,IMU,184204622,0,0.1328696,-0.1287403,1.105885,0.1685923,1.62007,-10.31434,0,0,34.10723,1,1,999,999
251904,57:40.0,IMU,184244606,0,0.1289781,-0.1386082,1.097257,0.2160078,1.546015,-10.31416,0,0,34.10869,1,1,999,999
251955,57:40.1,IMU,184284590,0,0.1269001,-0.1495993,1.08904,0.2606653,1.469089,-10.31854,0,0,34.11014,1,1,999,999
252008,57:40.1,IMU,184325407,0,0.1231967,-0.1588373,1.081276,0.3036433,1.389587,-10.3171,0,0,34.11163,1,1,999,999
252107,57:40.2,IMU,184365391,0,0.1147612,-0.1631427,1.07466,0.3423576,1.312809,-10.32078,0,0,34.11308,1,1,999,999
252161,57:40.2,IMU,184405375,0,0.1082177,-0.1692935,1.068619,0.3788572,1.235558,-10.32473,0,0,34.11453,1,1,999,999
252261,57:40.2,IMU,184445359,0,0.1039119,-0.1752563,1.063537,0.4080289,1.159979,-10.32574,0,0,34.11598,1,1,999,999
252319,57:40.3,IMU,184485343,0,0.1006935,-0.1773818,1.059157,0.4358644,1.088153,-10.33377,0,0,34.11743,1,1,999,999
252371,57:40.3,IMU,184525327,0,0.09205034,-0.1757047,1.055841,0.4578699,1.015651,-10.33151,0,0,34.11888,1,1,999,999
252472,57:40.4,IMU,184565311,0,0.07638998,-0.1690544,1.053359,0.4754661,0.9446623,-10.33514,0,0,34.12033,1,1,999,999
252526,57:40.4,IMU,184605295,0,0.0632633,-0.1568815,1.051519,0.4904438,0.8793643,-10.33743,0,0,34.12178,1,1,999,999
252624,57:40.4,IMU,184645279,0,0.04806535,-0.1419155,1.050511,0.5003133,0.8149554,-10.34139,0,0,34.12323,1,1,999,999
252676,57:40.5,IMU,184685263,0,0.03835818,-0.1279614,1.050016,0.5069144,0.7528214,-10.34232,0,0,34.12468,1,1,999,999
252729,57:40.5,IMU,184725247,0,0.02771522,-0.114371,1.049917,0.5092335,0.695345,-10.34682,0,0,34.12613,1,1,999,999
252828,57:40.6,IMU,184765231,0,0.01749138,-0.09891567,1.048733,0.5100036,0.6436575,-10.33656,0,0,34.12755,1,1,999,999
252882,57:40.6,IMU,184805215,0,0.009282123,-0.09202425,1.03634,0.5067608,0.5910397,-10.33206,0,0,34.129,1,1,999,999
252981,57:40.6,IMU,184845199,0,0.002178677,-0.0805233,1.005134,0.5000542,0.5444978,-10.32603,0,0,34.13045,1,1,999,999
253033,57:40.7,IMU,184885183,0,-0.004507537,-0.0717259,0.9533448,0.4905978,0.5011809,-10.32002,0,0,34.1319,1,1,999,999
253085,57:40.7,IMU,184925167,0,-0.0119446,-0.06296232,0.8835894,0.4772833,0.4621824,-10.31073,0,0,34.13335,1,1,999,999
253184,57:40.8,IMU,184965151,0,-0.01848946,-0.05619923,0.8003886,0.459038,0.4277162,-10.30326,0,0,34.13479,1,1,999,999
253240,57:40.8,IMU,185005135,0,-0.02367169,-0.05003386,0.7085109,0.4382668,0.3982175,-10.29218,0,0,34.13624,1,1,999,999
253340,57:40.8,IMU,185045119,0,-0.0277867,-0.0456461,0.6129578,0.415363,0.3724594,-10.28197,0,0,34.13769,1,1,1000,1000
253391,57:40.9,IMU,185085103,0,-0.0299116,-0.04311967,0.5179721,0.3894719,0.3511874,-10.27384,0,0,34.13914,1,1,1000,1000
253443,57:40.9,IMU,185125087,0,-0.03411211,-0.03950768,0.4267555,0.3632988,0.3321392,-10.25781,0,0,34.14059,1,1,1000,1000
253542,57:41.0,IMU,185165071,0,-0.03773269,-0.03598766,0.3422064,0.3363413,0.316333,-10.25107,0,0,34.14204,1,1,1000,1000
253596,57:41.0,IMU,185205055,0,-0.03992397,-0.03121264,0.2658082,0.3077699,0.3033204,-10.23852,0,0,34.14352,1,1,1000,1000
253694,57:41.0,IMU,185245039,0,-0.04203242,-0.02557812,0.1991691,0.2798797,0.2915502,-10.22699,0,0,34.14497,1,1,1000,1000
253745,57:41.1,IMU,185285023,0,-0.04331198,-0.02603767,0.1423018,0.2515962,0.284307,-10.21531,0,0,34.14642,1,1,1000,1000
253797,57:41.1,IMU,185325007,0,-0.0455791,-0.0268216,0.09540056,0.2223852,0.2751339,-10.20568,0,0,34.14786,1,1,1000,1000
253897,57:41.2,IMU,185364991,0,-0.04796143,-0.02611544,0.0577898,0.1940945,0.267544,-10.19175,0,0,34.14927,1,1,1000,1000
253951,57:41.2,IMU,185404975,0,-0.05069983,-0.02384085,0.02887381,0.1664077,0.2623488,-10.1827,0,0,34.15072,1,1,1000,1000
254051,57:41.2,IMU,185444959,0,-0.0521694,-0.02258339,0.007730551,0.1386285,0.258019,-10.17003,0,0,34.15216,1,1,1000,1000
254105,57:41.3,IMU,185484943,0,-0.05229733,-0.02261155,-0.00677775,0.1125906,0.252011,-10.16082,0,0,34.15361,1,1,1000,1000
254158,57:41.3,IMU,185524927,0,-0.05425951,-0.02155338,-0.01578199,0.08669308,0.2468037,-10.15149,0,0,34.15506,1,1,1000,1000
254259,57:41.4,IMU,185564911,0,-0.05674536,-0.01882854,-0.02030692,0.06036749,0.2421596,-10.14117,0,0,34.1565,1,1,1000,1000
254313,57:41.4,IMU,185604895,0,-0.06000372,-0.01609986,-0.02132528,0.03602187,0.2392455,-10.13185,0,0,34.15795,1,1,1000,1000
254411,57:41.4,IMU,185644879,0,-0.06045571,-0.01362299,-0.0198594,0.01242766,0.2337814,-10.12028,0,0,34.15939,1,1,1000,1000
254464,57:41.5,IMU,185684863,0,-0.06090905,-0.008624548,-0.01647158,-0.01072749,0.2306727,-10.1099,0,0,34.16084,1,1,1000,1000
254517,57:41.5,IMU,185724847,0,-0.06424361,0.000525776,-0.01213182,-0.033081,0.2277363,-10.10204,0,0,34.16228,1,1,1000,1000
254616,57:41.6,IMU,185764831,0,-0.06429733,0.01234808,-0.007396719,-0.05650745,0.2246881,-10.08553,0,0,34.16373,1,1,1000,1000
254670,57:41.6,IMU,185804815,0,-0.06643504,0.02668774,-0.002846219,-0.08240454,0.22272,-10.07581,0,0,34.16517,1,1,1000,1000
254769,57:41.6,IMU,185844799,0,-0.06980516,0.03967353,0.001307427,-0.1060264,0.2198796,-10.06406,0,0,34.16662,1,1,1000,1000
254821,57:41.7,IMU,185884783,0,-0.06628892,0.0516045,0.004744411,-0.1299126,0.2168274,-10.05039,0,0,34.16806,1,1,1000,1000
254873,57:41.7,IMU,185924767,0,-0.06905349,0.06250732,0.00730102,-0.1534561,0.2160851,-10.03028,0,0,34.16951,1,1,1000,1000
254972,57:41.8,IMU,185964751,0,-0.06650583,0.0725846,0.009376653,-0.1773572,0.2142109,-10.01355,0,0,34.17095,1,1,1000,1000
255026,57:41.8,IMU,186004735,0,-0.06070197,0.076141,0.01042067,-0.2006504,0.2133077,-10.00288,0,0,34.17239,1,1,1000,1000
255127,57:41.8,IMU,186044719,0,-0.05126495,0.07552241,0.0107401,-0.2257045,0.211755,-9.98814,0,0,34.17384,1,1,1000,1000
255178,57:41.9,IMU,186084703,0,-0.03709073,0.06954847,0.01038569,-0.2472228,0.2139157,-9.970152,0,0,34.17528,1,1,1000,1000
255230,57:41.9,IMU,186124687,0,-0.02722474,0.06489114,0.009570016,-0.2713029,0.2129942,-9.961433,0,0,34.17673,1,1,1000,1000
255330,57:42.0,IMU,186164671,0,-0.01816901,0.06201432,0.008597951,-0.2930962,0.21364,-9.953363,0,0,34.17817,1,1,1000,1000
255384,57:42.0,IMU,186204655,0,-0.01200628,0.058235,0.007471544,-0.3163541,0.2123229,-9.939566,0,0,34.17961,1,1,1000,1000
255482,57:42.0,IMU,186244639,0,-0.002772311,0.05371045,0.006148438,-0.3389407,0.2140746,-9.939019,0,0,34.18105,1,1,1000,1000
255533,57:42.1,IMU,186284623,0,0.003498597,0.04964062,0.004875723,-0.3612714,0.213989,-9.927286,0,0,34.1825,1,1,1000,1000
255586,57:42.1,IMU,186324607,0,0.00871539,0.04590098,0.003552332,-0.3834004,0.213956,-9.920555,0,0,34.18394,1,1,1000,1000
255686,57:42.2,IMU,186364591,0,0.008520227,0.04604702,0.002314832,-0.4045567,0.2142377,-9.912846,0,0,34.18538,1,1,1000,1000
255740,57:42.2,IMU,186405408,0,0.008333017,0.04783289,0.001105525,-0.4274539,0.2129543,-9.904682,0,0,34.18686,1,1,1000,1000
255840,57:42.2,IMU,186445392,0,0.007860314,0.05204345,0.000205644,-0.4490324,0.2149927,-9.898269,0,0,34.1883,1,1,1000,1000
255894,57:42.3,IMU,186485376,0,0.007450138,0.04789894,-0.00046745,-0.4698241,0.2141448,-9.891809,0,0,34.18974,1,1,1000,1000
255947,57:42.3,IMU,186525360,0,0.007999438,0.04508764,-0.000867081,-0.4908971,0.2128834,-9.887238,0,0,34.19118,1,1,1000,1000
256048,57:42.4,IMU,186565344,0,0.008476781,0.04161385,-0.001291926,-0.5115578,0.2148019,-9.888733,0,0,34.19262,1,1,1000,1000
256102,57:42.4,IMU,186605328,0,0.007705146,0.03853096,-0.001395104,-0.532057,0.2150763,-9.889235,0,0,34.19407,1,1,1000,1000
256200,57:42.4,IMU,186645312,0,0.007807957,0.03593153,-0.001262125,-0.5510975,0.2139655,-9.875712,0,0,34.1955,1,1,1000,1000
256253,57:42.5,IMU,186685296,0,0.007614086,0.03343332,-0.000850889,-0.57214,0.2141455,-9.872396,0,0,34.19695,1,1,1000,1000
256306,57:42.5,IMU,186725280,0,0.006381703,0.03497076,-0.000434186,-0.5907192,0.2142245,-9.868105,0,0,34.19839,1,1,1000,1000
256405,57:42.6,IMU,186765264,0,0.005850499,0.03218355,9.749648e-05,-0.6104035,0.2140356,-9.866651,0,0,34.19983,1,1,1000,1000
256459,57:42.6,IMU,186805248,0,0.004211355,0.02980915,0.000696515,-0.6287625,0.2131963,-9.863623,0,0,34.20127,1,1,1000,1000
256557,57:42.6,IMU,186845232,0,0.001892101,0.02762514,0.00107572,-0.6464359,0.2139389,-9.860334,0,0,34.20267,1,1,1000,1000
256609,57:42.7,IMU,186885216,0,0.001298434,0.02565335,0.001528541,-0.6646831,0.2138916,-9.858574,0,0,34.20411,1,1,1000,1000
256662,57:42.7,IMU,186925200,0,-0.0011731,0.02376304,0.001739234,-0.68299,0.2135589,-9.856436,0,0,34.20555,1,1,1000,1000
256761,57:42.8,IMU,186965184,0,-0.000586395,0.02511987,0.002061988,-0.7001503,0.2132279,-9.84802,0,0,34.20699,1,1,1000,1000
256816,57:42.8,IMU,187005168,0,-0.000723792,0.0268047,0.002107611,-0.7177693,0.2135488,-9.849384,0,0,34.20843,1,1,1000,1000
256917,57:42.8,IMU,187045152,0,-0.000468714,0.02854623,0.00208138,-0.7356143,0.2135716,-9.846626,0,0,34.20987,1,1,999,999
256968,57:42.9,IMU,187085136,0,-0.000167391,0.03079589,0.002202847,-0.7518249,0.2135009,-9.842376,0,0,34.2113,1,1,999,999
257020,57:42.9,IMU,187125120,0,-0.001828823,0.03130376,0.002383232,-0.7685963,0.2136721,-9.837476,0,0,34.21274,1,1,999,999
257119,57:43.0,IMU,187165104,0,-0.001436626,0.0321294,0.002463329,-0.7856067,0.2121899,-9.840502,0,0,34.21418,1,1,999,999
257173,57:43.0,IMU,187205088,0,-0.001975151,0.0343042,0.002698123,-0.8015761,0.2133322,-9.839186,0,0,34.21562,1,1,999,999
257271,57:43.0,IMU,187245072,0,-0.001577462,0.03626862,0.002783328,-0.8181649,0.2135311,-9.838394,0,0,34.21706,1,1,999,999
257322,57:43.1,IMU,187285056,0,-0.00153695,0.04199203,0.003020246,-0.8327141,0.2134515,-9.826523,0,0,34.21853,1,1,999,999
257378,57:43.1,IMU,187325040,0,-0.003667145,0.04371248,0.003177868,-0.8485105,0.2130321,-9.828524,0,0,34.21997,1,1,999,999
257480,57:43.2,IMU,187365024,0,-0.006925557,0.03932332,0.003507041,-0.8627706,0.2128119,-9.827518,0,0,34.22141,1,1,999,999
257534,57:43.2,IMU,187405008,0,-0.007915132,0.03651269,0.003622356,-0.8761329,0.2135435,-9.815767,0,0,34.22284,1,1,999,999
257634,57:43.2,IMU,187444992,0,-0.007773422,0.0349318,0.003600807,-0.8887534,0.2137904,-9.813812,0,0,34.22424,1,1,999,999
257688,57:43.3,IMU,187484976,0,-0.00755176,0.03547388,0.003644806,-0.9029635,0.2149196,-9.810289,0,0,34.22568,1,1,999,999
257740,57:43.3,IMU,187524960,0,-0.007101968,0.03754056,0.003625138,-0.9147617,0.2144463,-9.801571,0,0,34.22712,1,1,999,999
257842,57:43.4,IMU,187564944,0,-0.006309931,0.0383273,0.003498528,-0.9269149,0.216232,-9.803679,0,0,34.22855,1,1,999,999
257896,57:43.4,IMU,187604928,0,-0.005634793,0.03724386,0.003432582,-0.9399109,0.216349,-9.801693,0,0,34.22999,1,1,999,999
257994,57:43.4,IMU,187644912,0,-0.004906658,0.03848474,0.003277533,-0.9522365,0.2165175,-9.802145,0,0,34.23142,1,1,999,999
258046,57:43.5,IMU,187684896,0,-0.004261215,0.03823568,0.003183735,-0.9622588,0.216406,-9.801929,0,0,34.23286,1,1,999,999
258099,57:43.5,IMU,187724880,0,-0.003676248,0.03889344,0.003087373,-0.9744257,0.2176777,-9.802463,0,0,34.23429,1,1,999,999
258199,57:43.6,IMU,187764864,0,-0.003213365,0.03921656,0.003011113,-0.9835165,0.217679,-9.793114,0,0,34.23573,1,1,999,999
258253,57:43.6,IMU,187804848,0,-0.002705915,0.04132418,0.003180394,-0.9947565,0.218081,-9.796634,0,0,34.23717,1,1,999,999
258351,57:43.6,IMU,187844832,0,-0.002572036,0.04714826,0.003326812,-1.004192,0.2185849,-9.795069,0,0,34.2386,1,1,999,999
258403,57:43.7,IMU,187884816,0,-0.001477276,0.05152988,0.003208469,-1.014078,0.2188269,-9.783133,0,0,34.24004,1,1,999,999
258456,57:43.7,IMU,187924800,0,-0.000778111,0.05220037,0.003014575,-1.023152,0.2185897,-9.782179,0,0,34.24147,1,1,999,999
258555,57:43.8,IMU,187964784,0,-0.000765093,0.05402464,0.002851501,-1.030557,0.2206594,-9.77928,0,0,34.2429,1,1,999,999
258610,57:43.8,IMU,188004768,0,-0.003513947,0.0544184,0.002659717,-1.038636,0.2213558,-9.77496,0,0,34.24434,1,1,999,999
258710,57:43.8,IMU,188044752,0,-0.002844348,0.0553618,0.002660634,-1.046745,0.2218439,-9.774824,0,0,34.24577,1,1,1000,1000
258762,57:43.9,IMU,188084736,0,-0.002373254,0.05680092,0.002518788,-1.054296,0.2215951,-9.776113,0,0,34.24721,1,1,1000,1000
258814,57:43.9,IMU,188124720,0,-0.001976982,0.05330259,0.002383103,-1.060038,0.222221,-9.77422,0,0,34.24864,1,1,1000,1000
258913,57:44.0,IMU,188164704,0,-0.001592655,0.05215072,0.00237484,-1.066071,0.2239633,-9.773559,0,0,34.25007,1,1,1000,1000
258967,57:44.0,IMU,188204688,0,-0.001247578,0.05713602,0.002572262,-1.071687,0.2243335,-9.765974,0,0,34.25151,1,1,1000,1000
259065,57:44.0,IMU,188244672,0,-0.000912618,0.06232233,0.002880589,-1.076881,0.2249838,-9.765934,0,0,34.25294,1,1,1000,1000
259116,57:44.1,IMU,188284656,0,0.000756403,0.0685168,0.002935319,-1.081947,0.2252317,-9.764585,0,0,34.25437,1,1,1000,1000
259169,57:44.1,IMU,188324640,0,0.00136147,0.07128695,0.002862655,-1.085672,0.2261846,-9.763211,0,0,34.25581,1,1,1000,1000
259269,57:44.2,IMU,188364624,0,0.002894436,0.06844599,0.002758511,-1.09095,0.2283066,-9.760294,0,0,34.25724,1,1,1000,1000
259323,57:44.2,IMU,188404608,0,0.003407206,0.0608926,0.00265005,-1.091756,0.226947,-9.759107,0,0,34.25867,1,1,1000,1000
259423,57:44.2,IMU,188444592,0,0.000286168,0.05119223,0.002492065,-1.096771,0.2296023,-9.754389,0,0,34.2601,1,1,1000,1000
259477,57:44.3,IMU,188485409,0,0.000606571,0.03975554,0.002289852,-1.098081,0.2301734,-9.759666,0,0,34.26157,1,1,1000,1000
259529,57:44.3,IMU,188525393,0,0.000824009,0.0343586,0.002269303,-1.100015,0.2303324,-9.754713,0,0,34.263,1,1,1000,1000
259631,57:44.4,IMU,188565377,0,0.000903558,0.01984069,0.001941324,-1.101952,0.2299106,-9.760674,0,0,34.26443,1,1,1000,1000
259685,57:44.4,IMU,188605361,0,0.001010226,0.00640423,0.001705595,-1.10173,0.2314653,-9.758286,0,0,34.26586,1,1,1000,1000
259784,57:44.4,IMU,188645345,0,0.001186577,-0.001941628,0.001557867,-1.103372,0.2324768,-9.75463,0,0,34.2673,1,1,1000,1000
259879,57:44.5,IMU,188685329,0,0.001320781,-0.009640522,0.001530652,-1.104693,0.2331953,-9.754706,0,0,34.26873,1,1,1000,1000
259932,57:44.5,IMU,188725313,0,0.001483552,-0.01360012,0.001459552,-1.10442,0.2338592,-9.756426,0,0,34.27016,1,1,1000,1000
260032,57:44.6,IMU,188765297,0,0.00149168,-0.01639364,0.001452492,-1.107,0.234282,-9.755868,0,0,34.27159,1,1,1000,1000
260086,57:44.6,IMU,188805281,0,0.001644828,-0.0192295,0.001430063,-1.107963,0.2339134,-9.757034,0,0,34.27302,1,1,1000,1000
260184,57:44.6,IMU,188845265,0,0.001751641,-0.01984243,0.00151241,-1.108709,0.2359591,-9.749096,0,0,34.27445,1,1,1000,1000
260236,57:44.7,IMU,188885249,0,0.001779254,-0.01765519,0.001395836,-1.110616,0.2354501,-9.756083,0,0,34.27588,1,1,1000,1000
260289,57:44.7,IMU,188925233,0,0.001888648,-0.01642468,0.00110162,-1.112447,0.2378431,-9.75606,0,0,34.27727,1,1,1000,1000
260388,57:44.8,IMU,188965217,0,0.001941787,-0.02621152,0.000884331,-1.114293,0.2371664,-9.757022,0,0,34.2787,1,1,1000,1000
260443,57:44.8,IMU,189005201,0,0.000769491,-0.0252439,0.000622153,-1.116357,0.2393475,-9.757551,0,0,34.28013,1,1,1000,1000
260543,57:44.8,IMU,189045185,0,4.43744e-05,-0.01971018,0.000416319,-1.117769,0.2393125,-9.759691,0,0,34.28156,1,1,999,999
260595,57:44.9,IMU,189085169,0,-0.000782798,-0.01393953,0.000423571,-1.121582,0.2400068,-9.760641,0,0,34.28299,1,1,999,999
260647,57:44.9,IMU,189125153,0,-0.000396898,-0.01094927,0.000427291,-1.122907,0.2404712,-9.76043,0,0,34.28442,1,1,999,999
260746,57:45.0,IMU,189165137,0,-0.000205076,-0.007946716,0.000467061,-1.126923,0.2395407,-9.759338,0,0,34.28585,1,1,999,999
260800,57:45.0,IMU,189205121,0,0.000236636,-0.006778714,0.000563627,-1.128827,0.240591,-9.755465,0,0,34.28728,1,1,999,999
260898,57:45.0,IMU,189245105,0,0.001250253,-0.005432691,0.000650419,-1.131666,0.24201,-9.757396,0,0,34.2887,1,1,999,999
260949,57:45.1,IMU,189285089,0,0.001288935,-0.004410309,0.000699146,-1.134549,0.2423929,-9.75728,0,0,34.29013,1,1,999,999
261002,57:45.1,IMU,189325073,0,0.001151543,-0.00276356,0.000695149,-1.136757,0.2443257,-9.755987,0,0,34.29156,1,1,999,999
261101,57:45.2,IMU,189365057,0,0.000110651,-0.001861638,0.000682553,-1.13838,0.2438236,-9.753202,0,0,34.29302,1,1,999,999
261156,57:45.2,IMU,189405041,0,-0.000842166,0.002618765,0.000597899,-1.142355,0.2446255,-9.759421,0,0,34.29445,1,1,999,999
261256,57:45.2,IMU,189445025,0,0.001178307,0.00100023,0.000375594,-1.143687,0.2450479,-9.745793,0,0,34.29588,1,1,999,999
261310,57:45.3,IMU,189485009,0,0.001237953,-0.001159165,8.619405e-05,-1.145599,0.2454816,-9.747808,0,0,34.29731,1,1,999,999
261362,57:45.3,IMU,189524993,0,0.001419452,-0.001886786,-0.000239173,-1.148397,0.2471567,-9.749878,0,0,34.2987,1,1,999,999
261463,57:45.4,IMU,189564977,0,0.002465908,-0.000681871,-0.000403551,-1.151136,0.2478083,-9.753482,0,0,34.30013,1,1,999,999
261518,57:45.4,IMU,189604961,0,0.002160095,-0.001600585,-0.000420135,-1.154998,0.2497752,-9.753086,0,0,34.30155,1,1,999,999
261617,57:45.4,IMU,189644945,0,0.001685468,-0.001115614,-0.000330731,-1.156492,0.2486539,-9.747766,0,0,34.30298,1,1,999,999
261668,57:45.5,IMU,189684929,0,0.001237009,-0.00043675,-0.000317082,-1.158008,0.2496073,-9.750341,0,0,34.3044,1,1,999,999
261721,57:45.5,IMU,189724913,0,0.000411028,0.000777529,-0.000234369,-1.162408,0.24884,-9.749475,0,0,34.30583,1,1,999,999
261821,57:45.6,IMU,189764897,0,0.000627252,0.000220942,-0.000184311,-1.163769,0.2506787,-9.747734,0,0,34.30725,1,1,999,999
261875,57:45.6,IMU,189804881,0,0.001310909,0.001768724,-0.000337527,-1.165937,0.250237,-9.742838,0,0,34.30868,1,1,999,999
261973,57:45.6,IMU,189844865,0,0.001427743,0.00238029,-0.000537755,-1.168796,0.2525027,-9.745104,0,0,34.3101,1,1,999,999
262025,57:45.7,IMU,189884849,0,0.001594257,0.002072003,-0.000874724,-1.169912,0.2530765,-9.750174,0,0,34.31153,1,1,999,999
262078,57:45.7,IMU,189924833,0,0.001630595,0.002098221,-0.001312065,-1.172067,0.2540635,-9.751455,0,0,34.31295,1,1,999,999
262177,57:45.8,IMU,189964817,0,0.001709281,0.001544451,-0.00150159,-1.174463,0.253541,-9.74092,0,0,34.31438,1,1,999,999
262232,57:45.8,IMU,190004801,0,0.001732056,0.001178998,-0.001564361,-1.17741,0.2540203,-9.743875,0,0,34.3158,1,1,999,999
262332,57:45.8,IMU,190044785,0,0.002310602,0.001634588,-0.001514769,-1.179717,0.2554247,-9.745794,0,0,34.31723,1,1,1000,1000
262383,57:45.9,IMU,190084769,0,0.00212565,0.003968586,-0.001188844,-1.181152,0.2564222,-9.748149,0,0,34.31865,1,1,1000,1000
262436,57:45.9,IMU,190124753,0,0.001044429,0.004540073,-0.001010727,-1.182773,0.2559412,-9.746408,0,0,34.32008,1,1,1000,1000
262535,57:46.0,IMU,190164737,0,-0.001350152,0.005280208,-0.000828195,-1.184672,0.2559605,-9.741997,0,0,34.3215,1,1,1000,1000
262589,57:46.0,IMU,190204721,0,0.000938991,0.003263526,-0.000883348,-1.18618,0.2561812,-9.740662,0,0,34.32293,1,1,1000,1000
262687,57:46.0,IMU,190244705,0,0.000997724,0.000179538,-0.000935791,-1.189444,0.25854,-9.741752,0,0,34.32435,1,1,1000,1000
262738,57:46.1,IMU,190284689,0,0.001190305,0.002940253,-0.001088472,-1.191648,0.2586989,-9.742812,0,0,34.32577,1,1,1000,1000
262791,57:46.1,IMU,190324673,0,0.001273662,0.004323513,-0.001334417,-1.192911,0.2586095,-9.740808,0,0,34.32719,1,1,1000,1000
262890,57:46.2,IMU,190364657,0,0.001404758,0.004350684,-0.001362906,-1.194281,0.2595673,-9.741013,0,0,34.32862,1,1,1000,1000
262945,57:46.2,IMU,190404641,0,0.001490818,0.004636858,-0.001639935,-1.196479,0.2603318,-9.742593,0,0,34.33004,1,1,1000,1000
263045,57:46.2,IMU,190444625,0,0.001577552,0.005625132,-0.001670308,-1.199167,0.2615974,-9.74194,0,0,34.33146,1,1,1000,1000
263099,57:46.3,IMU,190484609,0,0.001751292,0.006122218,-0.001741454,-1.200498,0.2605813,-9.741703,0,0,34.33289,1,1,1000,1000
263151,57:46.3,IMU,190524593,0,0.001771332,0.007975679,-0.001784618,-1.201379,0.2620819,-9.740967,0,0,34.33431,1,1,1000,1000
263252,57:46.4,IMU,190564577,0,0.001883623,0.008818735,-0.001844617,-1.205018,0.2620648,-9.742051,0,0,34.33573,1,1,1000,1000
263306,57:46.4,IMU,190605394,0,0.001909977,0.01202175,-0.001884904,-1.205871,0.2616964,-9.739996,0,0,34.33719,1,1,1000,1000
263406,57:46.4,IMU,190645378,0,0.001974318,0.0130258,-0.001845988,-1.207287,0.2614631,-9.739956,0,0,34.33861,1,1,1000,1000
263457,57:46.5,IMU,190685362,0,0.002070487,0.01128617,-0.001958043,-1.207946,0.2629316,-9.742323,0,0,34.34003,1,1,1000,1000
263510,57:46.5,IMU,190725346,0,0.002100615,0.008143356,-0.001925419,-1.209521,0.2643774,-9.739155,0,0,34.34145,1,1,1000,1000
263610,57:46.6,IMU,190765330,0,0.002133943,0.006142039,-0.001920811,-1.210873,0.2641544,-9.740788,0,0,34.34287,1,1,1000,1000
263664,57:46.6,IMU,190805314,0,0.002228185,0.004202939,-0.001956048,-1.213282,0.264546,-9.739837,0,0,34.34429,1,1,1000,1000
263762,57:46.6,IMU,190845298,0,0.001637312,0.004957811,-0.001964887,-1.214431,0.265568,-9.736959,0,0,34.34571,1,1,1000,1000
263813,57:46.7,IMU,190885282,0,0.000447262,0.004574703,-0.001901271,-1.215764,0.2658076,-9.739458,0,0,34.34713,1,1,1000,1000
263867,57:46.7,IMU,190925266,0,-0.003057681,0.004020568,-0.001969211,-1.215829,0.2662,-9.742543,0,0,34.34856,1,1,1000,1000
263966,57:46.8,IMU,190965250,0,-0.002446671,0.003432798,-0.001913783,-1.216763,0.2670904,-9.740507,0,0,34.34998,1,1,1000,1000
264021,57:46.8,IMU,191005234,0,-0.004866782,0.004590134,-0.00193659,-1.21742,0.2674335,-9.74225,0,0,34.35139,1,1,1000,1000
264121,57:46.8,IMU,191045218,0,-0.004261654,0.001748045,-0.001980501,-1.218999,0.2689335,-9.739849,0,0,34.35278,1,1,1000,1000
264172,57:46.9,IMU,191085202,0,-0.00363961,0.001696331,-0.00194462,-1.21963,0.2692874,-9.740307,0,0,34.3542,1,1,1000,1000
264225,57:46.9,IMU,191125186,0,-0.002510469,0.003409964,-0.002161396,-1.219581,0.2676044,-9.733294,0,0,34.35562,1,1,1000,1000
264324,57:47.0,IMU,191165170,0,-0.001732892,0.004552636,-0.002292033,-1.221321,0.2689536,-9.738012,0,0,34.35704,1,1,1000,1000
264378,57:47.0,IMU,191205154,0,-0.002346949,0.004670625,-0.002618529,-1.222329,0.2705594,-9.737101,0,0,34.35846,1,1,1000,1000
264476,57:47.0,IMU,191245138,0,-0.00247416,0.004340596,-0.002933157,-1.222489,0.2713786,-9.736408,0,0,34.35987,1,1,1000,1000
264527,57:47.1,IMU,191285122,0,-0.002673686,0.0033515,-0.003220079,-1.225263,0.271247,-9.736118,0,0,34.36129,1,1,1000,1000
264582,57:47.1,IMU,191325106,0,-0.002528484,0.003239675,-0.003469288,-1.223642,0.2720163,-9.739595,0,0,34.36271,1,1,1000,1000
264681,57:47.2,IMU,191365090,0,-0.003210973,0.004120368,-0.003846717,-1.225319,0.2737427,-9.739368,0,0,34.36413,1,1,1000,1000
264736,57:47.2,IMU,191405074,0,0.000400982,0.003057031,-0.004076411,-1.227208,0.2723109,-9.742388,0,0,34.36555,1,1,1000,1000
264836,57:47.2,IMU,191445058,0,0.000541553,0.004450933,-0.00412206,-1.227414,0.273722,-9.73282,0,0,34.367,1,1,1000,1000
264890,57:47.3,IMU,191485042,0,0.001896691,0.00941916,-0.004179306,-1.226698,0.2748506,-9.734343,0,0,34.36842,1,1,1000,1000
264942,57:47.3,IMU,191525026,0,0.002275877,0.008669345,-0.004186333,-1.228215,0.2746003,-9.738858,0,0,34.36983,1,1,1000,1000
265043,57:47.4,IMU,191565010,0,0.002371857,0.006796888,-0.003957342,-1.229011,0.2767565,-9.739882,0,0,34.37125,1,1,1000,1000
265097,57:47.4,IMU,191604994,0,0.00242378,0.0050673,-0.00385601,-1.229331,0.2762712,-9.739111,0,0,34.37263,1,1,1000,1000
265197,57:47.4,IMU,191644978,0,0.002388592,0.004656066,-0.003683547,-1.231714,0.2774232,-9.73762,0,0,34.37405,1,1,1000,1000
265248,57:47.5,IMU,191684962,0,0.0024355,0.003235207,-0.003532988,-1.230535,0.2776046,-9.737585,0,0,34.37547,1,1,1000,1000
265301,57:47.5,IMU,191724946,0,0.002668445,0.002561082,-0.003364858,-1.231842,0.2773324,-9.737008,0,0,34.37688,1,1,1000,1000
265401,57:47.6,IMU,191764930,0,0.001782021,0.002529124,-0.00348072,-1.233118,0.2779122,-9.730411,0,0,34.3783,1,1,1000,1000
265455,57:47.6,IMU,191804914,0,0.00119005,0.001632706,-0.003738848,-1.231492,0.2786766,-9.737855,0,0,34.37972,1,1,1000,1000
265556,57:47.6,IMU,191844898,0,0.001612533,0.001692932,-0.003875528,-1.233673,0.2792611,-9.735926,0,0,34.38113,1,1,1000,1000
265607,57:47.7,IMU,191884882,0,0.002305822,0.001317514,-0.003991698,-1.233276,0.2802059,-9.734272,0,0,34.38255,1,1,1000,1000
265661,57:47.7,IMU,191924866,0,0.00431881,0.000775246,-0.004112524,-1.234599,0.280436,-9.739113,0,0,34.38396,1,1,1000,1000
265760,57:47.8,IMU,191964850,0,0.002272467,0.000660561,-0.00403585,-1.234657,0.2813895,-9.740816,0,0,34.38538,1,1,1000,1000
265815,57:47.8,IMU,192004834,0,0.002396308,0.000344844,-0.003949702,-1.234634,0.2821163,-9.739277,0,0,34.3868,1,1,1000,1000
265915,57:47.8,IMU,192044818,0,0.002379467,0.000126436,-0.003756336,-1.235718,0.2830688,-9.738657,0,0,34.38821,1,1,999,999
265966,57:47.9,IMU,192084802,0,0.002434713,0.001215651,-0.003714414,-1.236338,0.2825901,-9.73748,0,0,34.38963,1,1,999,999
266018,57:47.9,IMU,192124786,0,0.001743371,3.707883e-05,-0.003608376,-1.236685,0.2836542,-9.73396,0,0,34.39104,1,1,999,999
266118,57:48.0,IMU,192164770,0,0.001482376,0.00054808,-0.003662948,-1.237743,0.284312,-9.735006,0,0,34.39246,1,1,999,999
266172,57:48.0,IMU,192204754,0,0.000751116,0.000428795,-0.00359861,-1.238187,0.28404,-9.738147,0,0,34.39387,1,1,999,999
266270,57:48.0,IMU,192244738,0,0.000219968,-0.000312868,-0.003723766,-1.239029,0.2837389,-9.734273,0,0,34.39528,1,1,999,999
266321,57:48.1,IMU,192284722,0,0.001095195,-0.001943822,-0.003763807,-1.238775,0.2840098,-9.733166,0,0,34.3967,1,1,999,999
266374,57:48.1,IMU,192324706,0,0.001928512,-0.003147699,-0.004002731,-1.239269,0.2851443,-9.736008,0,0,34.39811,1,1,999,999
266473,57:48.2,IMU,192364690,0,0.001217242,-0.000478383,-0.003923101,-1.240062,0.2873922,-9.740992,0,0,34.39952,1,1,999,999
266528,57:48.2,IMU,192404674,0,0.00129052,0.002182118,-0.003817125,-1.240631,0.28613,-9.736075,0,0,34.40094,1,1,999,999
266630,57:48.2,IMU,192444658,0,0.001509455,0.004277973,-0.003819672,-1.240181,0.2857703,-9.737121,0,0,34.40235,1,1,999,999
266685,57:48.3,IMU,192484642,0,0.001514245,0.004473534,-0.003605006,-1.241928,0.2869378,-9.736037,0,0,34.40376,1,1,999,999
266737,57:48.3,IMU,192524626,0,0.001623328,0.00380697,-0.003435135,-1.24154,0.2879637,-9.73696,0,0,34.40517,1,1,999,999
266838,57:48.4,IMU,192564610,0,0.001735845,0.003222228,-0.003348907,-1.242311,0.2880519,-9.736412,0,0,34.40659,1,1,999,999
266892,57:48.4,IMU,192604594,0,0.002784749,0.003377315,-0.003185153,-1.242802,0.2883421,-9.733523,0,0,34.408,1,1,999,999
266991,57:48.4,IMU,192644578,0,0.003294397,0.004502823,-0.003299349,-1.244254,0.2883682,-9.730638,0,0,34.40941,1,1,999,999
267043,57:48.5,IMU,192685395,0,0.004771668,0.01208928,-0.003380601,-1.244205,0.2892565,-9.733575,0,0,34.41086,1,1,999,999
267096,57:48.5,IMU,192725379,0,0.004776498,0.01212398,-0.003446129,-1.245751,0.2896206,-9.732806,0,0,34.41227,1,1,999,999
267196,57:48.6,IMU,192765363,0,0.002552901,0.008364982,-0.003447362,-1.245719,0.2900403,-9.737274,0,0,34.41368,1,1,999,999
267250,57:48.6,IMU,192805347,0,0.002712483,0.003427226,-0.003291016,-1.245753,0.2914483,-9.7363,0,0,34.41509,1,1,999,999
267348,57:48.6,IMU,192845331,0,0.002661838,-0.000752481,-0.003059417,-1.246786,0.2901814,-9.729348,0,0,34.4165,1,1,999,999
267399,57:48.7,IMU,192885315,0,0.004549485,-0.005790956,-0.002963195,-1.246622,0.2907951,-9.735336,0,0,34.41792,1,1,999,999
267453,57:48.7,IMU,192925299,0,0.00439652,-0.007478613,-0.00286842,-1.246163,0.2916787,-9.73482,0,0,34.41933,1,1,999,999
267552,57:48.8,IMU,192965283,0,0.004238746,-0.008467369,-0.002718412,-1.24627,0.2930459,-9.734751,0,0,34.42074,1,1,999,999
267607,57:48.8,IMU,193005267,0,0.004146857,-0.007513298,-0.002614954,-1.245996,0.2929755,-9.735193,0,0,34.42215,1,1,999,999
267707,57:48.8,IMU,193045251,0,0.003977684,-0.00862298,-0.00247889,-1.24711,0.2926718,-9.733623,0,0,34.42356,1,1,1000,1000
267758,57:48.9,IMU,193085235,0,0.003878287,-0.01061409,-0.00237008,-1.248622,0.2926165,-9.733442,0,0,34.42497,1,1,1000,1000
267810,57:48.9,IMU,193125219,0,0.003820767,-0.01314143,-0.002334768,-1.249392,0.2930336,-9.733816,0,0,34.42635,1,1,1000,1000
267909,57:49.0,IMU,193165203,0,0.00375198,-0.0136155,-0.002305029,-1.249701,0.2931779,-9.732689,0,0,34.42776,1,1,1000,1000
267964,57:49.0,IMU,193205187,0,0.00367163,-0.009591983,-0.002282629,-1.251044,0.2955386,-9.734883,0,0,34.42916,1,1,1000,1000
268062,57:49.0,IMU,193245171,0,0.003582391,-0.007664939,-0.002280965,-1.25183,0.2932546,-9.733356,0,0,34.43057,1,1,1000,1000
268113,57:49.1,IMU,193285155,0,0.003533128,-0.006773528,-0.002417296,-1.252522,0.2939197,-9.733702,0,0,34.43198,1,1,1000,1000
268166,57:49.1,IMU,193325139,0,0.003500595,-0.004730454,-0.002445656,-1.253479,0.2953023,-9.732265,0,0,34.43339,1,1,1000,1000
268265,57:49.2,IMU,193365123,0,0.003400208,-0.002818906,-0.002449345,-1.254272,0.2944492,-9.734282,0,0,34.4348,1,1,1000,1000
268319,57:49.2,IMU,193405107,0,0.003322678,-0.000748606,-0.002466646,-1.256443,0.2956538,-9.733116,0,0,34.43621,1,1,1000,1000
268420,57:49.2,IMU,193445091,0,0.003280292,-0.001403091,-0.002636645,-1.258185,0.2940568,-9.736724,0,0,34.43762,1,1,1000,1000
268474,57:49.3,IMU,193485075,0,0.003268138,-0.002532175,-0.002664731,-1.256853,0.2951574,-9.733953,0,0,34.43903,1,1,1000,1000
268526,57:49.3,IMU,193525059,0,0.002982631,-0.001851003,-0.002635631,-1.259513,0.2952053,-9.733352,0,0,34.44047,1,1,1000,1000
268627,57:49.4,IMU,193565043,0,0.003252106,0.005365433,-0.002390962,-1.262087,0.2961521,-9.744299,0,0,34.44188,1,1,1000,1000
268681,57:49.4,IMU,193605027,0,0.003892825,0.003368104,-0.002102845,-1.262575,0.2968577,-9.736069,0,0,34.44328,1,1,1000,1000
268780,57:49.4,IMU,193645011,0,0.003689361,0.000622899,-0.001739121,-1.264013,0.297217,-9.734569,0,0,34.44469,1,1,1000,1000
268832,57:49.5,IMU,193684995,0,0.006724879,-0.001465896,-0.001474496,-1.265462,0.2971672,-9.736012,0,0,34.44606,1,1,1000,1000
268885,57:49.5,IMU,193724979,0,0.007693341,-0.001367359,-0.00117841,-1.265023,0.2972342,-9.734695,0,0,34.44747,1,1,1000,1000
268985,57:49.6,IMU,193764963,0,0.006707007,-0.000574146,-0.000859905,-1.266651,0.2983764,-9.735001,0,0,34.44888,1,1,1000,1000
269039,57:49.6,IMU,193804947,0,0.006453075,0.00278408,-0.000668652,-1.267808,0.2973686,-9.735415,0,0,34.45028,1,1,1000,1000
269137,57:49.6,IMU,193844931,0,0.00625508,0.002769364,-0.000411184,-1.267915,0.2984306,-9.736675,0,0,34.45169,1,1,1000,1000
269188,57:49.7,IMU,193884915,0,0.004554299,0.002863905,-0.000172755,-1.26992,0.2988787,-9.734195,0,0,34.4531,1,1,1000,1000
269242,57:49.7,IMU,193924899,0,0.003781969,0.002908492,-6.21e-05,-1.27023,0.2986662,-9.732758,0,0,34.4545,1,1,1000,1000
269342,57:49.8,IMU,193964883,0,0.003638582,0.004213822,9.193107e-05,-1.271221,0.2983897,-9.736792,0,0,34.45591,1,1,1000,1000
269396,57:49.8,IMU,194004867,0,0.002879763,0.005814014,0.000191073,-1.271963,0.2982554,-9.733952,0,0,34.45731,1,1,1000,1000
269496,57:49.8,IMU,194044851,0,0.002248453,0.006189332,0.000312157,-1.272565,0.2991541,-9.731743,0,0,34.45872,1,1,999,999
269547,57:49.9,IMU,194084835,0,0.003112815,0.006473037,0.000386097,-1.274522,0.2986997,-9.73309,0,0,34.46012,1,1,999,999
269599,57:49.9,IMU,194124819,0,0.00388851,0.0060872,0.000338413,-1.275078,0.2991967,-9.731173,0,0,34.46153,1,1,999,999
269698,57:50.0,IMU,194164803,0,0.00523986,0.006319808,0.000336619,-1.276271,0.3009385,-9.733619,0,0,34.46294,1,1,999,999
269753,57:50.0,IMU,194204787,0,0.004914904,0.006741809,0.000419329,-1.276717,0.2989798,-9.734161,0,0,34.46434,1,1,999,999
269851,57:50.0,IMU,194244771,0,0.00500315,0.006505652,0.000374978,-1.275822,0.2992027,-9.731364,0,0,34.46574,1,1,999,999
269902,57:50.1,IMU,194284755,0,0.006057316,0.007065378,0.000539438,-1.277684,0.3003122,-9.734138,0,0,34.46715,1,1,999,999
269955,57:50.1,IMU,194324739,0,0.00592814,0.006782643,0.000660696,-1.277838,0.3000426,-9.733377,0,0,34.46856,1,1,999,999
270054,57:50.2,IMU,194364723,0,0.006508564,0.002811179,0.000782625,-1.277582,0.3005453,-9.727997,0,0,34.46996,1,1,999,999
270108,57:50.2,IMU,194404707,0,0.005070014,0.001138286,0.000895396,-1.278562,0.3009382,-9.730925,0,0,34.47136,1,1,999,999
270209,57:50.2,IMU,194444691,0,0.002182927,0.004304108,0.001119027,-1.279253,0.3007093,-9.731636,0,0,34.47277,1,1,999,999
270263,57:50.3,IMU,194484675,0,0.00383559,0.007059344,0.001109235,-1.280623,0.3012072,-9.72477,0,0,34.47417,1,1,999,999
270315,57:50.3,IMU,194524659,0,0.004993201,0.00968005,0.001118145,-1.281509,0.3009797,-9.734631,0,0,34.47557,1,1,999,999
270416,57:50.4,IMU,194564643,0,0.006064973,0.00962528,0.000991815,-1.281462,0.3010103,-9.73101,0,0,34.47697,1,1,999,999
270470,57:50.4,IMU,194604627,0,0.00639738,0.0085176,0.000996352,-1.281199,0.300447,-9.730925,0,0,34.47838,1,1,999,999
270569,57:50.4,IMU,194644611,0,0.006066128,0.007994683,0.00105841,-1.280654,0.3013729,-9.728119,0,0,34.47978,1,1,999,999
270620,57:50.5,IMU,194684595,0,0.006052,0.008723135,0.001138212,-1.282017,0.3004374,-9.728735,0,0,34.48119,1,1,999,999
270674,57:50.5,IMU,194724579,0,0.005865433,0.009039417,0.001270506,-1.282722,0.3008383,-9.726411,0,0,34.48259,1,1,999,999
270774,57:50.6,IMU,194765396,0,0.00502084,0.01714355,0.001444568,-1.282258,0.3013094,-9.733434,0,0,34.48402,1,1,999,999
270828,57:50.6,IMU,194805380,0,0.00420806,0.01735503,0.00179046,-1.283418,0.3019012,-9.730067,0,0,34.48543,1,1,999,999
270926,57:50.6,IMU,194845364,0,0.004092203,0.01455587,0.001965211,-1.283571,0.3005957,-9.728898,0,0,34.48683,1,1,999,999
270977,57:50.7,IMU,194885348,0,0.002812134,0.0117751,0.002261991,-1.283015,0.3012259,-9.727378,0,0,34.48823,1,1,999,999
271031,57:50.7,IMU,194925332,0,0.003117549,0.009490104,0.002477724,-1.283079,0.3011719,-9.72746,0,0,34.48963,1,1,999,999
271131,57:50.8,IMU,194965316,0,0.002651963,0.008708577,0.002717379,-1.281881,0.3012732,-9.727275,0,0,34.49103,1,1,999,999
271185,57:50.8,IMU,195005300,0,0.003110801,0.006785997,0.002830118,-1.282351,0.3019739,-9.729217,0,0,34.49244,1,1,999,999
271285,57:50.8,IMU,195045284,0,0.004015682,0.005982098,0.002911093,-1.28124,0.3013634,-9.724267,0,0,34.49384,1,1,1000,1000
271336,57:50.9,IMU,195085268,0,0.003888011,0.005834839,0.002830011,-1.281627,0.3022403,-9.731318,0,0,34.49524,1,1,1000,1000
271388,57:50.9,IMU,195125252,0,0.003843163,0.007381846,0.002516919,-1.281088,0.3009399,-9.731438,0,0,34.49664,1,1,1000,1000
271487,57:51.0,IMU,195165236,0,0.003767328,0.007649749,0.002243957,-1.281227,0.3034397,-9.729261,0,0,34.49804,1,1,1000,1000
271541,57:51.0,IMU,195205220,0,0.003323961,0.001555538,0.002028498,-1.281958,0.3010628,-9.72896,0,0,34.4994,1,1,1000,1000
271640,57:51.0,IMU,195245204,0,0.002698464,0.002682936,0.001939663,-1.27942,0.3015646,-9.727781,0,0,34.5008,1,1,1000,1000
271691,57:51.1,IMU,195285188,0,0.002714423,0.008771806,0.001824014,-1.280432,0.301253,-9.730896,0,0,34.5022,1,1,1000,1000
271744,57:51.1,IMU,195325172,0,0.004644307,0.01247328,0.001625794,-1.27966,0.3006518,-9.72925,0,0,34.5036,1,1,1000,1000
271845,57:51.2,IMU,195365156,0,0.004354302,0.01235338,0.001529006,-1.279003,0.3006787,-9.729191,0,0,34.505,1,1,1000,1000
271899,57:51.2,IMU,195405140,0,0.002930209,0.009901293,0.001808214,-1.278671,0.3016014,-9.733002,0,0,34.5064,1,1,1000,1000
272000,57:51.2,IMU,195445124,0,0.005239951,0.009307655,0.002119403,-1.27798,0.300768,-9.731747,0,0,34.5078,1,1,1000,1000
272054,57:51.3,IMU,195485108,0,0.007358106,0.008822414,0.002431714,-1.277656,0.3009177,-9.734401,0,0,34.5092,1,1,1000,1000
272106,57:51.3,IMU,195525092,0,0.009198227,0.008296895,0.002706885,-1.2781,0.301534,-9.734336,0,0,34.5106,1,1,1000,1000
272207,57:51.4,IMU,195565076,0,0.009639102,0.007891919,0.002952205,-1.276631,0.3020453,-9.730779,0,0,34.51199,1,1,1000,1000
272261,57:51.4,IMU,195605060,0,0.008152382,0.007596377,0.003217365,-1.275065,0.3016757,-9.729095,0,0,34.51343,1,1,1000,1000
