Unnamed: 0,Timestamp,Unnamed: 2,TimeUS,I,GyrX,GyrY,GyrZ,AccX,AccY,AccZ,EG,EA,T,GH,AH,GHz,AHz
422948,59:15.3,IMU,279524812,0,0.008011645,-0.04428416,0.006582261,-3.587,-0.2490334,-9.307849,0,0,37.07228,1,1,999,999
423049,59:15.4,IMU,279564796,0,0.007442311,-0.03050763,0.006518395,-3.620937,-0.2490317,-9.287524,0,0,37.07334,1,1,999,999
423103,59:15.4,IMU,279604780,0,0.007042906,-0.02403525,0.006363837,-3.653634,-0.2481183,-9.260756,0,0,37.07439,1,1,999,999
423202,59:15.4,IMU,279644764,0,0.006635953,-0.0142127,0.005953668,-3.686884,-0.2484214,-9.237564,0,0,37.07545,1,1,999,999
423253,59:15.5,IMU,279684748,0,0.007150293,-0.008350965,0.005586781,-3.721905,-0.2459848,-9.225622,0,0,37.07651,1,1,999,999
423305,59:15.5,IMU,279724732,0,0.007823912,-0.003712992,0.00494004,-3.75595,-0.2463312,-9.20178,0,0,37.07756,1,1,999,999
423407,59:15.6,IMU,279764716,0,0.007329896,-0.000724099,0.004436494,-3.787774,-0.2469406,-9.181388,0,0,37.07862,1,1,999,999
423462,59:15.6,IMU,279804700,0,0.006962826,0.001378329,0.004029731,-3.820529,-0.2454623,-9.157357,0,0,37.07967,1,1,999,999
423560,59:15.6,IMU,279844684,0,0.006665025,0.00213425,0.003688978,-3.851901,-0.2453496,-9.137453,0,0,37.08073,1,1,999,999
423611,59:15.7,IMU,279884668,0,0.006303499,0.001205606,0.003502106,-3.882747,-0.2460579,-9.114912,0,0,37.08179,1,1,999,999
423664,59:15.7,IMU,279924652,0,0.006010112,0.002438297,0.003576349,-3.912966,-0.2462638,-9.096841,0,0,37.08284,1,1,999,999
423764,59:15.8,IMU,279964636,0,0.007385234,0.002566926,0.003444322,-3.943578,-0.2455705,-9.077381,0,0,37.0839,1,1,999,999
423818,59:15.8,IMU,280004620,0,0.008295667,0.002747359,0.003391273,-3.972761,-0.2437668,-9.055117,0,0,37.08495,1,1,999,999
423918,59:15.8,IMU,280044604,0,0.006964365,0.004226293,0.003149374,-3.999345,-0.2444158,-9.029059,0,0,37.08601,1,1,999,999
423969,59:15.9,IMU,280084588,0,0.006307997,0.005631214,0.003107919,-4.027523,-0.2446091,-9.015377,0,0,37.08706,1,1,1000,1000
424023,59:15.9,IMU,280125405,0,0.00633929,0.005766989,0.003094151,-4.053648,-0.2443734,-8.993279,0,0,37.08815,1,1,1000,1000
424122,59:16.0,IMU,280165389,0,0.005767726,0.006932186,0.0029936,-4.081004,-0.2441642,-8.97794,0,0,37.0892,1,1,1000,1000
424176,59:16.0,IMU,280205373,0,0.005055609,0.005503979,0.002932979,-4.106568,-0.2437446,-8.95869,0,0,37.09026,1,1,1000,1000
424274,59:16.0,IMU,280245357,0,0.004938624,0.00592921,0.002994898,-4.130332,-0.2439436,-8.943045,0,0,37.09131,1,1,1000,1000
424326,59:16.1,IMU,280285341,0,0.004854387,0.005674081,0.003032609,-4.154252,-0.2443548,-8.930182,0,0,37.09237,1,1,1000,1000
424379,59:16.1,IMU,280325325,0,0.004779449,0.005516436,0.003144437,-4.178299,-0.2462267,-8.918937,0,0,37.09342,1,1,1000,1000
424478,59:16.2,IMU,280365309,0,0.004614814,0.005344189,0.003258783,-4.20153,-0.2442237,-8.906972,0,0,37.09447,1,1,1000,1000
424532,59:16.2,IMU,280405293,0,0.00457679,0.005155289,0.003284401,-4.223581,-0.2436726,-8.89554,0,0,37.09553,1,1,1000,1000
424633,59:16.2,IMU,280445277,0,0.005224575,0.003601309,0.003514262,-4.24409,-0.2440688,-8.873671,0,0,37.09658,1,1,1000,1000
424687,59:16.3,IMU,280485261,0,0.00529035,0.001991944,0.003729037,-4.263692,-0.2435336,-8.859734,0,0,37.09763,1,1,1000,1000
424739,59:16.3,IMU,280525245,0,0.006807498,0.002229009,0.003771691,-4.284944,-0.2443645,-8.849068,0,0,37.09869,1,1,1000,1000
424840,59:16.4,IMU,280565229,0,0.004509475,0.00236536,0.003962481,-4.303329,-0.2432534,-8.837068,0,0,37.09972,1,1,1000,1000
424894,59:16.4,IMU,280605213,0,0.003825478,0.001264147,0.0040164,-4.322459,-0.2443563,-8.828316,0,0,37.10077,1,1,1000,1000
424993,59:16.4,IMU,280645197,0,0.004222655,0.002179014,0.00408809,-4.341638,-0.2439585,-8.819426,0,0,37.10182,1,1,1000,1000
425044,59:16.5,IMU,280685181,0,0.005590283,0.001982633,0.004100645,-4.358471,-0.2448465,-8.805072,0,0,37.10287,1,1,1000,1000
425096,59:16.5,IMU,280725165,0,0.005432935,0.002468976,0.004134558,-4.376709,-0.2445844,-8.7946,0,0,37.10393,1,1,1000,1000
425195,59:16.6,IMU,280765149,0,0.003720671,0.003240713,0.004178287,-4.393394,-0.2437299,-8.786966,0,0,37.10498,1,1,1000,1000
425249,59:16.6,IMU,280805133,0,0.003569247,0.004068717,0.004168215,-4.409368,-0.2448221,-8.778619,0,0,37.10603,1,1,1000,1000
425348,59:16.6,IMU,280845117,0,0.005114087,0.005204031,0.004241452,-4.426566,-0.2433128,-8.769966,0,0,37.10709,1,1,1000,1000
425399,59:16.7,IMU,280885101,0,0.006837496,0.006019847,0.004184265,-4.440823,-0.2442259,-8.758052,0,0,37.10814,1,1,1000,1000
425452,59:16.7,IMU,280925085,0,0.00730976,0.006202548,0.004101787,-4.455754,-0.2442721,-8.75246,0,0,37.10919,1,1,1000,1000
425552,59:16.8,IMU,280965069,0,0.007571972,0.005010443,0.003966383,-4.4707,-0.245387,-8.745676,0,0,37.11024,1,1,1000,1000
425606,59:16.8,IMU,281005053,0,0.005972356,0.00538038,0.004000219,-4.486227,-0.2451235,-8.734387,0,0,37.11132,1,1,1000,1000
425706,59:16.8,IMU,281045037,0,0.005967665,0.003440598,0.004109625,-4.499897,-0.2451654,-8.727856,0,0,37.11237,1,1,1000,1000
425758,59:16.9,IMU,281085021,0,0.007555982,0.002943751,0.003975684,-4.510712,-0.2459923,-8.719694,0,0,37.11342,1,1,999,999
425811,59:16.9,IMU,281125005,0,0.007870563,0.003469693,0.004067414,-4.524569,-0.2451171,-8.712811,0,0,37.11448,1,1,999,999
425911,59:17.0,IMU,281164989,0,0.006744012,0.003068181,0.004251561,-4.537806,-0.2445193,-8.709044,0,0,37.1155,1,1,999,999
425965,59:17.0,IMU,281204973,0,0.007189674,0.003321685,0.004305329,-4.5495,-0.2452447,-8.702358,0,0,37.11655,1,1,999,999
426063,59:17.0,IMU,281244957,0,0.005519394,0.002088374,0.004396412,-4.562045,-0.2455104,-8.695284,0,0,37.1176,1,1,999,999
426114,59:17.1,IMU,281284941,0,0.004620656,0.002712751,0.004425218,-4.57295,-0.2458133,-8.686519,0,0,37.11865,1,1,999,999
426167,59:17.1,IMU,281324925,0,0.008277319,0.005229025,0.004210722,-4.582123,-0.2448923,-8.672952,0,0,37.11971,1,1,999,999
426266,59:17.2,IMU,281364909,0,0.006033108,0.005821769,0.004225287,-4.594995,-0.2461934,-8.680531,0,0,37.12075,1,1,999,999
426320,59:17.2,IMU,281404893,0,0.005022243,0.00569075,0.004044658,-4.605145,-0.2457979,-8.671898,0,0,37.1218,1,1,999,999
426420,59:17.2,IMU,281444877,0,0.006876913,0.005584724,0.003619905,-4.614948,-0.2449187,-8.665197,0,0,37.12286,1,1,999,999
426474,59:17.3,IMU,281484861,0,0.008945748,0.004917934,0.003362512,-4.625225,-0.2461707,-8.660972,0,0,37.12391,1,1,999,999
426526,59:17.3,IMU,281524845,0,0.008538328,0.003375998,0.003326043,-4.635407,-0.2444767,-8.658199,0,0,37.12495,1,1,999,999
426627,59:17.4,IMU,281564829,0,0.006496196,0.004962047,0.003563168,-4.643528,-0.2459037,-8.645798,0,0,37.12601,1,1,999,999
426681,59:17.4,IMU,281604813,0,0.005505503,0.004729277,0.003743807,-4.653017,-0.246543,-8.638494,0,0,37.12706,1,1,999,999
426779,59:17.4,IMU,281644797,0,0.005153485,0.004592624,0.003941755,-4.660208,-0.2470936,-8.637111,0,0,37.12811,1,1,999,999
426831,59:17.5,IMU,281684781,0,0.005034672,0.004561862,0.004251966,-4.669179,-0.2473259,-8.63584,0,0,37.12915,1,1,999,999
426883,59:17.5,IMU,281724765,0,0.005375069,0.004476109,0.004500751,-4.677987,-0.2483288,-8.630487,0,0,37.1302,1,1,999,999
426983,59:17.6,IMU,281764749,0,0.006170559,0.004428625,0.004646083,-4.68512,-0.2460171,-8.626133,0,0,37.13125,1,1,999,999
427037,59:17.6,IMU,281804733,0,0.003365868,0.004390528,0.004776549,-4.691984,-0.2463546,-8.617702,0,0,37.1323,1,1,999,999
427136,59:17.6,IMU,281844717,0,0.003585818,0.003735571,0.004741502,-4.699996,-0.2470981,-8.617471,0,0,37.13335,1,1,999,999
427187,59:17.7,IMU,281884701,0,0.007237529,0.004022546,0.00424609,-4.707528,-0.2482457,-8.61824,0,0,37.1344,1,1,999,999
427240,59:17.7,IMU,281924685,0,0.006837677,0.005490666,0.003906424,-4.71489,-0.2480636,-8.612412,0,0,37.13545,1,1,999,999
427340,59:17.8,IMU,281964669,0,0.006488641,0.005507096,0.003749566,-4.72085,-0.2479831,-8.607374,0,0,37.1365,1,1,999,999
427394,59:17.8,IMU,282004653,0,0.003972602,0.00248136,0.003892938,-4.727601,-0.2480691,-8.602414,0,0,37.13755,1,1,999,999
427494,59:17.8,IMU,282044637,0,0.003832338,0.002819191,0.004113006,-4.733175,-0.2489089,-8.602707,0,0,37.13859,1,1,999,999
427545,59:17.9,IMU,282084621,0,0.004995208,0.002958302,0.004321427,-4.738594,-0.2489873,-8.597138,0,0,37.13964,1,1,999,999
427598,59:17.9,IMU,282124605,0,0.005050141,0.003133361,0.004539978,-4.744239,-0.2489793,-8.594637,0,0,37.14069,1,1,999,999
427697,59:18.0,IMU,282164589,0,0.004681672,0.003326347,0.004753669,-4.749942,-0.2498669,-8.593269,0,0,37.14174,1,1,999,999
427752,59:18.0,IMU,282205406,0,0.004003638,0.005073112,0.005023303,-4.755688,-0.2480101,-8.587127,0,0,37.14281,1,1,999,999
427850,59:18.0,IMU,282245390,0,0.005242493,0.004937534,0.005162887,-4.761373,-0.2499944,-8.585896,0,0,37.14386,1,1,999,999
427901,59:18.1,IMU,282285374,0,0.006487117,0.005387995,0.004896569,-4.766066,-0.2494894,-8.585875,0,0,37.14491,1,1,999,999
427953,59:18.1,IMU,282325358,0,0.006079758,0.005022433,0.004477547,-4.771644,-0.2498791,-8.581829,0,0,37.14595,1,1,999,999
428053,59:18.2,IMU,282365342,0,0.005833341,0.004011437,0.004136581,-4.777771,-0.2504372,-8.578104,0,0,37.147,1,1,999,999
428107,59:18.2,IMU,282405326,0,0.005623525,0.002383007,0.003801549,-4.781356,-0.2506374,-8.576919,0,0,37.14805,1,1,999,999
428208,59:18.2,IMU,282445310,0,0.005378425,0.002599829,0.003567847,-4.785827,-0.2509608,-8.570915,0,0,37.14909,1,1,999,999
428263,59:18.3,IMU,282485294,0,0.005278538,0.005026002,0.003430468,-4.790173,-0.2512883,-8.567219,0,0,37.15014,1,1,999,999
428315,59:18.3,IMU,282525278,0,0.00578381,0.003445318,0.003438906,-4.793598,-0.2517908,-8.567427,0,0,37.15119,1,1,999,999
428416,59:18.4,IMU,282565262,0,0.00539203,0.003515551,0.003875583,-4.798584,-0.2519873,-8.56714,0,0,37.15223,1,1,999,999
428470,59:18.4,IMU,282605246,0,0.005048657,0.003661614,0.004135117,-4.802271,-0.2518205,-8.563616,0,0,37.15328,1,1,999,999
428568,59:18.4,IMU,282645230,0,0.005381434,0.00367911,0.004409396,-4.805298,-0.253027,-8.562288,0,0,37.1543,1,1,999,999
428620,59:18.5,IMU,282685214,0,0.005694873,0.00375976,0.004648586,-4.808363,-0.2520569,-8.560362,0,0,37.15535,1,1,999,999
428672,59:18.5,IMU,282725198,0,0.005056213,0.003819666,0.004813388,-4.811752,-0.2534453,-8.554563,0,0,37.15639,1,1,999,999
428771,59:18.6,IMU,282765182,0,0.004227616,0.003800457,0.004944734,-4.816435,-0.2540726,-8.553926,0,0,37.15744,1,1,999,999
428825,59:18.6,IMU,282805166,0,0.002424684,0.003865612,0.005261575,-4.819588,-0.2538808,-8.553201,0,0,37.15849,1,1,999,999
428924,59:18.6,IMU,282845150,0,0.00287565,0.004796074,0.005302066,-4.821533,-0.2541101,-8.548334,0,0,37.15953,1,1,999,999
428975,59:18.7,IMU,282885134,0,0.003936378,0.005535447,0.005159936,-4.827168,-0.2547914,-8.551468,0,0,37.16058,1,1,999,999
429028,59:18.7,IMU,282925118,0,0.003292924,0.006166688,0.004791674,-4.830254,-0.254157,-8.550828,0,0,37.16162,1,1,999,999
429128,59:18.8,IMU,282965102,0,0.003400458,0.007205242,0.004478375,-4.833031,-0.2538202,-8.549212,0,0,37.16267,1,1,999,999
429182,59:18.8,IMU,283005086,0,0.003510723,0.006430964,0.004224737,-4.835568,-0.2554109,-8.542,0,0,37.16371,1,1,999,999
429282,59:18.8,IMU,283045070,0,0.003593918,0.005090124,0.004087356,-4.836965,-0.2560039,-8.541268,0,0,37.16475,1,1,999,999
429334,59:18.9,IMU,283085054,0,0.003607482,0.005623198,0.004047409,-4.840063,-0.2555767,-8.538413,0,0,37.16582,1,1,1000,1000
429387,59:18.9,IMU,283125038,0,0.003710257,0.005398069,0.004067158,-4.84366,-0.2570514,-8.538689,0,0,37.16687,1,1,1000,1000
429486,59:19.0,IMU,283165022,0,0.003738571,0.005281049,0.004043528,-4.845473,-0.2559565,-8.535877,0,0,37.16792,1,1,1000,1000
429541,59:19.0,IMU,283205006,0,0.003817256,0.005112824,0.004075885,-4.84938,-0.2576655,-8.535589,0,0,37.16896,1,1,1000,1000
429639,59:19.0,IMU,283244990,0,0.003854154,0.005049843,0.004070899,-4.852182,-0.2581051,-8.53425,0,0,37.16998,1,1,1000,1000
429690,59:19.1,IMU,283284974,0,0.003844585,0.004863566,0.004094611,-4.853072,-0.2580727,-8.533255,0,0,37.17102,1,1,1000,1000
429742,59:19.1,IMU,283324958,0,0.003894844,0.004756134,0.004093098,-4.854963,-0.2575893,-8.533513,0,0,37.17207,1,1,1000,1000
429842,59:19.2,IMU,283364942,0,0.003896908,0.004680457,0.004074952,-4.857841,-0.257765,-8.531801,0,0,37.17311,1,1,1000,1000
429896,59:19.2,IMU,283404926,0,0.003881879,0.004613313,0.004059242,-4.86051,-0.2574927,-8.530617,0,0,37.17415,1,1,1000,1000
429998,59:19.2,IMU,283444910,0,0.003945082,0.004513989,0.004105084,-4.861378,-0.2593217,-8.529768,0,0,37.17519,1,1,1000,1000
430052,59:19.3,IMU,283484894,0,0.00398937,0.004512895,0.004033969,-4.862064,-0.2591258,-8.528709,0,0,37.17624,1,1,1000,1000
430104,59:19.3,IMU,283524878,0,0.004033744,0.004455846,0.004043914,-4.863927,-0.25866,-8.528025,0,0,37.17728,1,1,1000,1000
430205,59:19.4,IMU,283564862,0,0.00396544,0.004414319,0.004105793,-4.865445,-0.2587367,-8.526767,0,0,37.17832,1,1,1000,1000
430259,59:19.4,IMU,283604846,0,0.003997484,0.004328023,0.004068822,-4.867789,-0.2597045,-8.526574,0,0,37.17937,1,1,1000,1000
430357,59:19.4,IMU,283644830,0,0.004066688,0.004289711,0.004111685,-4.869989,-0.2597753,-8.524588,0,0,37.18041,1,1,1000,1000
430408,59:19.5,IMU,283684814,0,0.004021182,0.004275384,0.004045849,-4.87098,-0.2600169,-8.524496,0,0,37.18145,1,1,1000,1000
430461,59:19.5,IMU,283724798,0,0.004078669,0.004250734,0.004034103,-4.871576,-0.2607822,-8.523786,0,0,37.1825,1,1,1000,1000
430563,59:19.6,IMU,283764782,0,0.004016066,0.003605244,0.0040775,-4.873544,-0.2593452,-8.522235,0,0,37.18354,1,1,1000,1000
430617,59:19.6,IMU,283804766,0,0.002664731,0.002862697,0.004179366,-4.872983,-0.2598806,-8.513975,0,0,37.18458,1,1,1000,1000
430715,59:19.6,IMU,283844750,0,0.00236198,0.00155501,0.004509434,-4.874848,-0.2601506,-8.512902,0,0,37.18562,1,1,1000,1000
430767,59:19.7,IMU,283884734,0,0.002703019,0.002368504,0.004722105,-4.876727,-0.2610252,-8.516367,0,0,37.18666,1,1,1000,1000
430820,59:19.7,IMU,283924718,0,0.002870871,0.003175911,0.00493171,-4.877349,-0.261455,-8.516539,0,0,37.18771,1,1,1000,1000
430920,59:19.8,IMU,283964702,0,0.002975473,0.002988607,0.004938671,-4.87989,-0.2628335,-8.517954,0,0,37.18874,1,1,1000,1000
430974,59:19.8,IMU,284004686,0,0.003147591,0.003178667,0.004771488,-4.879007,-0.2618667,-8.516918,0,0,37.18979,1,1,1000,1000
431074,59:19.8,IMU,284044670,0,0.003309205,0.003287995,0.004801722,-4.881535,-0.2621794,-8.517765,0,0,37.19083,1,1,1000,1000
431125,59:19.9,IMU,284084654,0,0.003355953,0.003339961,0.004715645,-4.882666,-0.2624077,-8.516058,0,0,37.19187,1,1,999,999
431178,59:19.9,IMU,284124638,0,0.000112807,0.003446448,0.004826898,-4.882822,-0.2624456,-8.51321,0,0,37.19291,1,1,999,999
431277,59:20.0,IMU,284164622,0,-0.0019835,0.003578612,0.004702365,-4.884121,-0.2627917,-8.511807,0,0,37.19395,1,1,999,999
431331,59:20.0,IMU,284204606,0,-0.0027203,0.003599813,0.004690624,-4.884716,-0.2619147,-8.510027,0,0,37.19499,1,1,999,999
431430,59:20.0,IMU,284244590,0,-0.004379017,0.003670815,0.004767719,-4.88588,-0.2630406,-8.512786,0,0,37.19603,1,1,999,999
431481,59:20.1,IMU,284285407,0,-0.003208292,0.003734183,0.004607169,-4.886958,-0.2644354,-8.513102,0,0,37.1971,1,1,999,999
431533,59:20.1,IMU,284325391,0,-0.009656335,0.003782475,0.004971598,-4.887942,-0.2657754,-8.513383,0,0,37.19814,1,1,999,999
431633,59:20.2,IMU,284365375,0,-0.01277843,0.004780851,0.004824866,-4.891124,-0.2658421,-8.532808,0,0,37.19918,1,1,999,999
431688,59:20.2,IMU,284405359,0,-0.01664641,0.004589718,0.00439443,-4.891768,-0.2666368,-8.530385,0,0,37.20022,1,1,999,999
431788,59:20.2,IMU,284445343,0,-0.01861336,0.004557594,0.003831175,-4.892059,-0.2676051,-8.530243,0,0,37.20126,1,1,999,999
431842,59:20.3,IMU,284485327,0,-0.01974536,0.004500626,0.003332219,-4.89431,-0.2698628,-8.534537,0,0,37.2023,1,1,999,999
431894,59:20.3,IMU,284525311,0,-0.02148907,0.003219539,0.002819222,-4.89551,-0.2704609,-8.541055,0,0,37.20334,1,1,999,999
431995,59:20.4,IMU,284565295,0,-0.02240714,0.001797011,0.001793024,-4.897219,-0.2715918,-8.545977,0,0,37.20438,1,1,999,999
432049,59:20.4,IMU,284605279,0,-0.0238257,0.002055926,0.000728821,-4.896777,-0.2738613,-8.543003,0,0,37.20542,1,1,999,999
432147,59:20.4,IMU,284645263,0,-0.02388576,0.002452192,-0.000279241,-4.89834,-0.2759382,-8.544398,0,0,37.20646,1,1,999,999
432198,59:20.5,IMU,284685247,0,-0.02459841,0.002481871,-0.001708046,-4.898838,-0.2768472,-8.556633,0,0,37.2075,1,1,999,999
432251,59:20.5,IMU,284725231,0,-0.0244647,0.0027347,-0.003307026,-4.89915,-0.2796627,-8.555971,0,0,37.20851,1,1,999,999
432350,59:20.6,IMU,284765215,0,-0.02612015,0.01297477,-0.004828951,-4.900075,-0.2793493,-8.555693,0,0,37.20955,1,1,999,999
432404,59:20.6,IMU,284805199,0,-0.02635537,0.03064556,-0.006644944,-4.905314,-0.2814881,-8.574524,0,0,37.21059,1,1,999,999
432502,59:20.6,IMU,284845183,0,-0.02268571,0.05007055,-0.00888685,-4.910982,-0.2833125,-8.578832,0,0,37.21162,1,1,999,999
432554,59:20.7,IMU,284885167,0,-0.01940254,0.0668716,-0.01098996,-4.920102,-0.284443,-8.587407,0,0,37.21266,1,1,999,999
432607,59:20.7,IMU,284925151,0,-0.02089969,0.08133657,-0.01273493,-4.929318,-0.2856185,-8.588464,0,0,37.2137,1,1,999,999
432707,59:20.8,IMU,284965135,0,-0.02109844,0.09238467,-0.01465793,-4.937705,-0.2880514,-8.58561,0,0,37.21474,1,1,999,999
432761,59:20.8,IMU,285005119,0,-0.02006284,0.09495842,-0.01653636,-4.946032,-0.2896706,-8.59786,0,0,37.21578,1,1,999,999
432861,59:20.8,IMU,285045103,0,-0.0203722,0.0996339,-0.0183685,-4.95272,-0.2909164,-8.590293,0,0,37.21682,1,1,999,999
432913,59:20.9,IMU,285085087,0,-0.01804691,0.09879765,-0.02040174,-4.959227,-0.2931162,-8.588151,0,0,37.21785,1,1,1000,1000
432966,59:20.9,IMU,285125071,0,-0.01985732,0.0996716,-0.0221507,-4.964447,-0.2959516,-8.591312,0,0,37.21889,1,1,1000,1000
433065,59:21.0,IMU,285165055,0,-0.02128774,0.09763665,-0.02387571,-4.966905,-0.2970923,-8.588901,0,0,37.21996,1,1,1000,1000
433119,59:21.0,IMU,285205039,0,-0.02241123,0.09686885,-0.02570178,-4.967996,-0.299872,-8.585863,0,0,37.22099,1,1,1000,1000
433218,59:21.0,IMU,285245023,0,-0.02326769,0.09396882,-0.02731348,-4.968053,-0.3028839,-8.588106,0,0,37.22203,1,1,1000,1000
433269,59:21.1,IMU,285285007,0,-0.02330515,0.09426858,-0.02901246,-4.967104,-0.3056673,-8.594158,0,0,37.22306,1,1,1000,1000
433321,59:21.1,IMU,285324991,0,-0.02296257,0.08871859,-0.03071466,-4.965403,-0.3087318,-8.598139,0,0,37.22408,1,1,1000,1000
433420,59:21.2,IMU,285364975,0,-0.02442232,0.08714697,-0.03268686,-4.959426,-0.3124214,-8.606461,0,0,37.22511,1,1,1000,1000
433475,59:21.2,IMU,285404959,0,-0.02795091,0.08094592,-0.03432538,-4.954104,-0.3145507,-8.603056,0,0,37.22615,1,1,1000,1000
433575,59:21.2,IMU,285444943,0,-0.0284389,0.08018189,-0.03611862,-4.946981,-0.3184001,-8.612127,0,0,37.22719,1,1,1000,1000
433629,59:21.3,IMU,285484927,0,-0.02718228,0.0765827,-0.03821626,-4.940166,-0.3220335,-8.622746,0,0,37.22822,1,1,1000,1000
433681,59:21.3,IMU,285524911,0,-0.02969896,0.07479515,-0.03996736,-4.931399,-0.3272777,-8.631817,0,0,37.22926,1,1,1000,1000
433782,59:21.4,IMU,285564895,0,-0.02869904,0.07404052,-0.04195735,-4.919193,-0.3288947,-8.638751,0,0,37.23029,1,1,1000,1000
433836,59:21.4,IMU,285604879,0,-0.0330734,0.07008871,-0.04383287,-4.909112,-0.3341001,-8.644192,0,0,37.23133,1,1,1000,1000
433934,59:21.4,IMU,285644863,0,-0.03295895,0.06690539,-0.04597906,-4.899918,-0.3381946,-8.661074,0,0,37.23236,1,1,1000,1000
433985,59:21.5,IMU,285684847,0,-0.03656944,0.06535079,-0.04776445,-4.884952,-0.3438188,-8.665234,0,0,37.2334,1,1,1000,1000
434037,59:21.5,IMU,285724831,0,-0.03408604,0.06429964,-0.05021379,-4.871817,-0.3479293,-8.676547,0,0,37.23444,1,1,1000,1000
434138,59:21.6,IMU,285764815,0,-0.03824727,0.06215373,-0.05225083,-4.859535,-0.3541203,-8.693125,0,0,37.23547,1,1,1000,1000
434192,59:21.6,IMU,285804799,0,-0.03885817,0.05963149,-0.05473489,-4.845556,-0.3579524,-8.706294,0,0,37.23651,1,1,1000,1000
434290,59:21.6,IMU,285844783,0,-0.04008436,0.0597586,-0.05709767,-4.831285,-0.3641483,-8.716198,0,0,37.23755,1,1,1000,1000
434342,59:21.7,IMU,285884767,0,-0.04310334,0.05873472,-0.05944555,-4.815483,-0.3695582,-8.736026,0,0,37.23858,1,1,1000,1000
434395,59:21.7,IMU,285924751,0,-0.04202423,0.0566762,-0.06211856,-4.801286,-0.3756936,-8.74771,0,0,37.23961,1,1,1000,1000
434495,59:21.8,IMU,285964735,0,-0.0455152,0.05359096,-0.06466494,-4.784986,-0.3826397,-8.766537,0,0,37.24065,1,1,1000,1000
434549,59:21.8,IMU,286004719,0,-0.05008156,0.05035146,-0.06710502,-4.768413,-0.3894675,-8.772707,0,0,37.24168,1,1,1000,1000
434649,59:21.8,IMU,286044703,0,-0.04987955,0.04790288,-0.06987094,-4.752427,-0.3958039,-8.79566,0,0,37.24272,1,1,1000,1000
434700,59:21.9,IMU,286084687,0,-0.04786048,0.05002258,-0.0729994,-4.734881,-0.4025006,-8.806247,0,0,37.24375,1,1,999,999
434753,59:21.9,IMU,286124671,0,-0.04884415,0.04966778,-0.07582478,-4.717532,-0.4102147,-8.816889,0,0,37.24479,1,1,999,999
434852,59:22.0,IMU,286164655,0,-0.05156233,0.05034705,-0.07881749,-4.701056,-0.4184574,-8.840977,0,0,37.24582,1,1,999,999
434906,59:22.0,IMU,286204639,0,-0.05509523,0.04690001,-0.08191379,-4.683474,-0.4239982,-8.851204,0,0,37.24685,1,1,999,999
435004,59:22.0,IMU,286244623,0,-0.05659451,0.04993128,-0.08520783,-4.665449,-0.4333099,-8.866575,0,0,37.24789,1,1,999,999
435056,59:22.1,IMU,286284607,0,-0.05622935,0.04926088,-0.08857284,-4.648134,-0.4410288,-8.884472,0,0,37.24892,1,1,999,999
435108,59:22.1,IMU,286324591,0,-0.05813723,0.04789345,-0.09198257,-4.630645,-0.4496338,-8.900692,0,0,37.24995,1,1,999,999
435207,59:22.2,IMU,286365408,0,-0.05993165,0.04824013,-0.09565809,-4.612488,-0.4586899,-8.912084,0,0,37.25101,1,1,999,999
435263,59:22.2,IMU,286405392,0,-0.06146648,0.04963527,-0.09918312,-4.594103,-0.4680834,-8.93644,0,0,37.25204,1,1,999,999
435363,59:22.2,IMU,286445376,0,-0.06256142,0.04762984,-0.1030186,-4.577003,-0.479055,-8.957697,0,0,37.25308,1,1,999,999
435417,59:22.3,IMU,286485360,0,-0.062865,0.0489594,-0.1068339,-4.557903,-0.4852788,-8.965452,0,0,37.25411,1,1,999,999
435469,59:22.3,IMU,286525344,0,-0.06268154,0.04576375,-0.1108033,-4.538896,-0.4974869,-8.985384,0,0,37.25514,1,1,999,999
435570,59:22.4,IMU,286565328,0,-0.06473264,0.04121064,-0.1146907,-4.519217,-0.5078089,-8.998782,0,0,37.25618,1,1,999,999
435624,59:22.4,IMU,286605312,0,-0.06555119,0.03546305,-0.1189213,-4.500412,-0.5174087,-9.021507,0,0,37.25721,1,1,999,999
435722,59:22.4,IMU,286645296,0,-0.06750029,0.02855414,-0.123243,-4.479597,-0.5287683,-9.036262,0,0,37.25824,1,1,999,999
435773,59:22.5,IMU,286685280,0,-0.06829333,0.023471,-0.1277376,-4.457187,-0.541053,-9.04878,0,0,37.25927,1,1,999,999
435825,59:22.5,IMU,286725264,0,-0.06714607,0.0103177,-0.1322795,-4.436099,-0.551681,-9.065744,0,0,37.26031,1,1,999,999
435924,59:22.6,IMU,286765248,0,-0.06542797,0.00396378,-0.1369769,-4.4138,-0.5641988,-9.083697,0,0,37.26134,1,1,999,999
435979,59:22.6,IMU,286805232,0,-0.06505406,-0.004515947,-0.1414938,-4.389872,-0.5760059,-9.100351,0,0,37.26234,1,1,999,999
436077,59:22.6,IMU,286845216,0,-0.06995446,-0.0172693,-0.1455311,-4.366283,-0.5891306,-9.118342,0,0,37.26337,1,1,999,999
436129,59:22.7,IMU,286885200,0,-0.06702894,-0.02001864,-0.1500939,-4.34252,-0.6017873,-9.128658,0,0,37.2644,1,1,999,999
436182,59:22.7,IMU,286925184,0,-0.06709239,-0.02399609,-0.1544968,-4.318677,-0.6151879,-9.149899,0,0,37.26544,1,1,999,999
436282,59:22.8,IMU,286965168,0,-0.06324683,-0.02983676,-0.1589203,-4.295339,-0.6288676,-9.171051,0,0,37.26647,1,1,999,999
436336,59:22.8,IMU,287005152,0,-0.06441997,-0.03622182,-0.1628414,-4.273187,-0.6446484,-9.190691,0,0,37.2675,1,1,999,999
436436,59:22.8,IMU,287045136,0,-0.06165773,-0.0413206,-0.1669984,-4.248939,-0.6599,-9.203199,0,0,37.26853,1,1,999,999
436488,59:22.9,IMU,287085120,0,-0.0573207,-0.04560747,-0.1711426,-4.226964,-0.673412,-9.215464,0,0,37.26956,1,1,999,999
436540,59:22.9,IMU,287125104,0,-0.05405007,-0.05024374,-0.1749257,-4.204161,-0.6894356,-9.229321,0,0,37.27059,1,1,999,999
436640,59:23.0,IMU,287165088,0,-0.04803584,-0.05320582,-0.1785582,-4.18374,-0.7042972,-9.244558,0,0,37.27162,1,1,999,999
436694,59:23.0,IMU,287205072,0,-0.04202342,-0.05284824,-0.1817907,-4.161755,-0.7191944,-9.260872,0,0,37.27265,1,1,999,999
436792,59:23.0,IMU,287245056,0,-0.03739342,-0.04871013,-0.184549,-4.141072,-0.7337899,-9.270292,0,0,37.27371,1,1,999,999
436846,59:23.1,IMU,287285040,0,-0.0345019,-0.04171174,-0.1865963,-4.122403,-0.7487082,-9.287947,0,0,37.27474,1,1,999,999
436899,59:23.1,IMU,287325024,0,-0.0307155,-0.03685952,-0.1880244,-4.106762,-0.764482,-9.294376,0,0,37.27577,1,1,999,999
436998,59:23.2,IMU,287365008,0,-0.03025962,-0.03248543,-0.1886986,-4.091242,-0.7816724,-9.310509,0,0,37.2768,1,1,999,999
437053,59:23.2,IMU,287404992,0,-0.0251769,-0.02735144,-0.1891166,-4.075937,-0.7949597,-9.314514,0,0,37.2778,1,1,999,999
437153,59:23.2,IMU,287444976,0,-0.02548468,-0.02190502,-0.1886235,-4.061356,-0.810609,-9.320523,0,0,37.27883,1,1,999,999
437207,59:23.3,IMU,287484960,0,-0.01995428,-0.01550681,-0.1880096,-4.049609,-0.8257749,-9.326848,0,0,37.27986,1,1,999,999
437259,59:23.3,IMU,287524944,0,-0.02112292,-0.007562628,-0.1866958,-4.038833,-0.841042,-9.333079,0,0,37.28089,1,1,999,999
437360,59:23.4,IMU,287564928,0,-0.01633663,0.00108193,-0.1852081,-4.028738,-0.8569342,-9.336094,0,0,37.28192,1,1,999,999
437414,59:23.4,IMU,287604912,0,-0.01346912,0.01062641,-0.1833231,-4.018231,-0.8704796,-9.330902,0,0,37.28295,1,1,999,999
437512,59:23.4,IMU,287644896,0,-0.01138208,0.01989173,-0.181145,-4.011265,-0.8851044,-9.339382,0,0,37.28398,1,1,999,999
437563,59:23.5,IMU,287684880,0,-0.009533317,0.02892024,-0.1785102,-4.004007,-0.8966143,-9.32433,0,0,37.28501,1,1,999,999
437615,59:23.5,IMU,287724864,0,-0.009121571,0.03525026,-0.1757953,-3.998935,-0.9116496,-9.325041,0,0,37.28604,1,1,999,999
437715,59:23.6,IMU,287764848,0,-0.009943942,0.03429903,-0.1722383,-3.992832,-0.925081,-9.32568,0,0,37.28706,1,1,999,999
437772,59:23.6,IMU,287804832,0,-0.008146709,0.03455009,-0.1689661,-3.985193,-0.937548,-9.31022,0,0,37.28809,1,1,999,999
437870,59:23.6,IMU,287844816,0,-0.006635242,0.03554906,-0.1657466,-3.979464,-0.9510014,-9.308424,0,0,37.28912,1,1,999,999
437921,59:23.7,IMU,287884800,0,-0.006388417,0.03654339,-0.1622778,-3.972636,-0.963255,-9.298504,0,0,37.29015,1,1,999,999
437974,59:23.7,IMU,287924784,0,-0.007968523,0.03245161,-0.1587596,-3.965639,-0.9756777,-9.293142,0,0,37.29118,1,1,999,999
438074,59:23.8,IMU,287964768,0,-0.007522333,0.03366353,-0.1553697,-3.960449,-0.9873613,-9.295109,0,0,37.29221,1,1,999,999
438129,59:23.8,IMU,288004752,0,-0.007540619,0.03186257,-0.1517602,-3.952526,-0.9996271,-9.273846,0,0,37.29323,1,1,999,999
438229,59:23.8,IMU,288044736,0,-0.006714471,0.02840749,-0.1481263,-3.944731,-1.009947,-9.273088,0,0,37.29426,1,1,999,999
438280,59:23.9,IMU,288084720,0,-0.006587977,0.02542076,-0.1447316,-3.938464,-1.021607,-9.272173,0,0,37.29529,1,1,999,999
438332,59:23.9,IMU,288124704,0,-0.006506758,0.02410352,-0.1413457,-3.930733,-1.033105,-9.255242,0,0,37.29631,1,1,1000,1000
438432,59:24.0,IMU,288164688,0,-0.007346823,0.02415242,-0.137763,-3.921351,-1.042984,-9.248178,0,0,37.29734,1,1,1000,1000
438486,59:24.0,IMU,288204672,0,-0.007998733,0.02157867,-0.1341581,-3.916034,-1.052943,-9.25038,0,0,37.29837,1,1,1000,1000
438584,59:24.0,IMU,288244656,0,-0.006523577,0.01938102,-0.13077,-3.907937,-1.062237,-9.246325,0,0,37.2994,1,1,1000,1000
438635,59:24.1,IMU,288284640,0,-0.005190691,0.02062828,-0.127589,-3.901363,-1.071683,-9.238021,0,0,37.30042,1,1,1000,1000
438688,59:24.1,IMU,288324624,0,-0.00409291,0.02028332,-0.1244756,-3.893032,-1.081149,-9.229193,0,0,37.30145,1,1,1000,1000
438787,59:24.2,IMU,288364608,0,-0.003055092,0.01833086,-0.1212438,-3.885837,-1.089728,-9.219703,0,0,37.30247,1,1,1000,1000
438843,59:24.2,IMU,288404592,0,-0.002231264,0.01683436,-0.1181345,-3.877893,-1.099135,-9.213896,0,0,37.3035,1,1,1000,1000
438945,59:24.2,IMU,288445409,0,-0.001409189,0.01525217,-0.1152355,-3.871046,-1.107008,-9.21034,0,0,37.30455,1,1,1000,1000
438999,59:24.3,IMU,288485393,0,0.003005754,0.01606147,-0.1126393,-3.864304,-1.112403,-9.203691,0,0,37.30558,1,1,1000,1000
439051,59:24.3,IMU,288525377,0,0.005964848,0.01539661,-0.1099523,-3.857455,-1.120553,-9.197958,0,0,37.30661,1,1,1000,1000
439152,59:24.4,IMU,288565361,0,0.007801118,0.01075449,-0.106825,-3.850412,-1.126999,-9.191002,0,0,37.30763,1,1,1000,1000
439206,59:24.4,IMU,288605345,0,0.00855142,0.01049123,-0.1036822,-3.844666,-1.13425,-9.189161,0,0,37.30865,1,1,1000,1000
439304,59:24.4,IMU,288645329,0,0.008623527,0.009691136,-0.100412,-3.837272,-1.139844,-9.187625,0,0,37.30968,1,1,1000,1000
439355,59:24.5,IMU,288685313,0,0.008014896,0.007374583,-0.09729861,-3.831581,-1.146158,-9.172233,0,0,37.31071,1,1,1000,1000
439407,59:24.5,IMU,288725297,0,0.007875489,0.0058596,-0.09396568,-3.824729,-1.151069,-9.165414,0,0,37.31173,1,1,1000,1000
439506,59:24.6,IMU,288765281,0,0.01089635,0.005378436,-0.09104521,-3.818488,-1.157066,-9.16276,0,0,37.31276,1,1,1000,1000
439560,59:24.6,IMU,288805265,0,0.01166591,0.004307688,-0.08735307,-3.813372,-1.16148,-9.165375,0,0,37.31378,1,1,1000,1000
439659,59:24.6,IMU,288845249,0,0.01246218,0.004303838,-0.08398395,-3.808318,-1.167506,-9.158038,0,0,37.31481,1,1,1000,1000
439710,59:24.7,IMU,288885233,0,0.01181148,0.004859066,-0.08081958,-3.802562,-1.170719,-9.148236,0,0,37.3158,1,1,1000,1000
439763,59:24.7,IMU,288925217,0,0.01246838,0.001004636,-0.07763736,-3.798294,-1.175893,-9.139225,0,0,37.31683,1,1,1000,1000
439863,59:24.8,IMU,288965201,0,0.01613924,0.001287238,-0.07452711,-3.792998,-1.179631,-9.131996,0,0,37.31786,1,1,1000,1000
439918,59:24.8,IMU,289005185,0,0.01843766,0.001858148,-0.07151236,-3.788706,-1.182562,-9.129272,0,0,37.31888,1,1,1000,1000
440018,59:24.8,IMU,289045169,0,0.02326946,0.004820946,-0.06855091,-3.785616,-1.185458,-9.126223,0,0,37.3199,1,1,1000,1000
440070,59:24.9,IMU,289085153,0,0.02150529,0.004567895,-0.0650541,-3.782163,-1.187736,-9.119761,0,0,37.32093,1,1,1000,1000
440122,59:24.9,IMU,289125137,0,0.0202059,0.004551437,-0.06172797,-3.779359,-1.191503,-9.118349,0,0,37.32195,1,1,999,999
440222,59:25.0,IMU,289165121,0,0.02228144,0.002855801,-0.05876775,-3.777819,-1.193805,-9.111446,0,0,37.32298,1,1,999,999
440276,59:25.0,IMU,289205105,0,0.02529325,0.000956978,-0.05565561,-3.773083,-1.19551,-9.096624,0,0,37.324,1,1,999,999
440374,59:25.0,IMU,289245089,0,0.02993411,0.004071969,-0.05266792,-3.77182,-1.195217,-9.086164,0,0,37.32502,1,1,999,999
440425,59:25.1,IMU,289285073,0,0.03074186,0.003873491,-0.04909599,-3.77071,-1.196908,-9.092183,0,0,37.32605,1,1,999,999
440477,59:25.1,IMU,289325057,0,0.03018777,0.003979865,-0.04566692,-3.770272,-1.197757,-9.085196,0,0,37.3271,1,1,999,999
440577,59:25.2,IMU,289365041,0,0.03051197,0.002919589,-0.04265147,-3.767848,-1.198909,-9.073457,0,0,37.32812,1,1,999,999
440631,59:25.2,IMU,289405025,0,0.03007306,0.001417716,-0.03905753,-3.765432,-1.200281,-9.06633,0,0,37.32914,1,1,999,999
440732,59:25.2,IMU,289445009,0,0.03344393,-0.00011423,-0.03570959,-3.765304,-1.198358,-9.057055,0,0,37.33016,1,1,999,999
440786,59:25.3,IMU,289484993,0,0.03720532,0.000425798,-0.03253433,-3.763987,-1.199244,-9.051744,0,0,37.33116,1,1,999,999
440838,59:25.3,IMU,289524977,0,0.03759965,0.000903935,-0.02926501,-3.764439,-1.198442,-9.045832,0,0,37.33218,1,1,999,999
440939,59:25.4,IMU,289564961,0,0.03667156,4.783778e-05,-0.02595106,-3.764962,-1.197078,-9.031955,0,0,37.3332,1,1,999,999
440993,59:25.4,IMU,289604945,0,0.03647658,-0.001938989,-0.02224503,-3.764188,-1.195421,-9.024817,0,0,37.33422,1,1,999,999
441091,59:25.4,IMU,289644929,0,0.03650151,-0.001149218,-0.01862066,-3.765386,-1.196331,-9.020521,0,0,37.33525,1,1,999,999
441142,59:25.5,IMU,289684913,0,0.03865213,-0.000511448,-0.01529593,-3.766481,-1.19575,-9.016062,0,0,37.33627,1,1,999,999
441195,59:25.5,IMU,289724897,0,0.03802541,0.000119091,-0.01214605,-3.76829,-1.193727,-9.008876,0,0,37.33729,1,1,999,999
441294,59:25.6,IMU,289764881,0,0.03521019,-0.002386687,-0.008855699,-3.76959,-1.191726,-9.00081,0,0,37.33831,1,1,999,999
441348,59:25.6,IMU,289804865,0,0.02754334,-0.004315357,-0.005047757,-3.772413,-1.191227,-8.998077,0,0,37.33933,1,1,999,999
441446,59:25.6,IMU,289844849,0,0.02169131,-0.0053753,-0.001596089,-3.774263,-1.189847,-8.994621,0,0,37.34035,1,1,999,999
441498,59:25.7,IMU,289884833,0,0.01890469,-0.006649895,0.001553275,-3.775545,-1.187789,-8.993357,0,0,37.34138,1,1,999,999
441551,59:25.7,IMU,289924817,0,0.01435147,-0.005167823,0.004180631,-3.777539,-1.188226,-8.990309,0,0,37.3424,1,1,999,999
441651,59:25.8,IMU,289964801,0,0.007318732,-0.005446151,0.006556521,-3.782537,-1.188678,-8.99216,0,0,37.34342,1,1,999,999
441706,59:25.8,IMU,290004785,0,0.004651903,-0.005838914,0.008745122,-3.783842,-1.186893,-8.987459,0,0,37.34444,1,1,999,999
441806,59:25.8,IMU,290044769,0,0.000992905,-0.000702135,0.009992376,-3.788162,-1.188864,-8.99229,0,0,37.34546,1,1,999,999
441857,59:25.9,IMU,290084753,0,0.002596165,0.005307504,0.01043986,-3.791887,-1.187703,-8.976889,0,0,37.34648,1,1,999,999
441909,59:25.9,IMU,290124737,0,0.002293174,0.01673365,0.01026402,-3.797898,-1.186855,-8.985989,0,0,37.3475,1,1,1000,1000
442009,59:26.0,IMU,290164721,0,-0.000462381,0.02678032,0.01014835,-3.804531,-1.185879,-8.974275,0,0,37.34852,1,1,1000,1000
442063,59:26.0,IMU,290204705,0,0.003156507,0.0390173,0.009242743,-3.810225,-1.185027,-8.970179,0,0,37.34954,1,1,1000,1000
442161,59:26.0,IMU,290244689,0,0.001717419,0.05266547,0.00845688,-3.818927,-1.184011,-8.966328,0,0,37.35056,1,1,1000,1000
442212,59:26.1,IMU,290284673,0,0.00077923,0.06291497,0.007402708,-3.828173,-1.182342,-8.961809,0,0,37.35158,1,1,1000,1000
442264,59:26.1,IMU,290324657,0,0.005842142,0.07122892,0.005809717,-3.835714,-1.181833,-8.95173,0,0,37.3526,1,1,1000,1000
442364,59:26.2,IMU,290364641,0,0.003595608,0.07904886,0.004707451,-3.844496,-1.181927,-8.938552,0,0,37.35362,1,1,1000,1000
442419,59:26.2,IMU,290404625,0,0.005978554,0.08029756,0.003521891,-3.851079,-1.180829,-8.927717,0,0,37.35464,1,1,1000,1000
442520,59:26.2,IMU,290444609,0,0.006832707,0.08150819,0.002436906,-3.857286,-1.179032,-8.914133,0,0,37.35566,1,1,1000,1000
442574,59:26.3,IMU,290484593,0,0.007624332,0.08563056,0.001223978,-3.862109,-1.178673,-8.90948,0,0,37.35668,1,1,1000,1000
442626,59:26.3,IMU,290524577,0,0.008199842,0.08837584,0.000167853,-3.867896,-1.178164,-8.904266,0,0,37.3577,1,1,1000,1000
442727,59:26.4,IMU,290565394,0,0.007984328,0.09369151,-0.000745646,-3.870226,-1.177729,-8.889237,0,0,37.35874,1,1,1000,1000
442781,59:26.4,IMU,290605378,0,0.009011859,0.09198764,-0.001495742,-3.873174,-1.17616,-8.87932,0,0,37.35976,1,1,1000,1000
442879,59:26.4,IMU,290645362,0,0.008405258,0.09109043,-0.002048316,-3.875613,-1.177565,-8.870098,0,0,37.36078,1,1,1000,1000
442930,59:26.5,IMU,290685346,0,0.009732734,0.09043055,-0.002660236,-3.8753,-1.176719,-8.860004,0,0,37.3618,1,1,1000,1000
442982,59:26.5,IMU,290725330,0,0.00985908,0.08986238,-0.003046597,-3.873086,-1.176761,-8.848238,0,0,37.36282,1,1,1000,1000
443081,59:26.6,IMU,290765314,0,0.01099909,0.08998038,-0.003320026,-3.871476,-1.175713,-8.837263,0,0,37.36383,1,1,1000,1000
443135,59:26.6,IMU,290805298,0,0.01007949,0.09115414,-0.003476512,-3.868008,-1.175099,-8.828118,0,0,37.36485,1,1,1000,1000
443233,59:26.6,IMU,290845282,0,0.01032368,0.09151166,-0.003549694,-3.863783,-1.176182,-8.819371,0,0,37.36587,1,1,1000,1000
443285,59:26.7,IMU,290885266,0,0.01327715,0.09514195,-0.003758647,-3.859202,-1.17618,-8.812678,0,0,37.36689,1,1,1000,1000
443337,59:26.7,IMU,290925250,0,0.01568492,0.09340209,-0.00378103,-3.853574,-1.17512,-8.805606,0,0,37.3679,1,1,1000,1000
443438,59:26.8,IMU,290965234,0,0.01943055,0.09249157,-0.003801843,-3.84745,-1.176812,-8.799156,0,0,37.36892,1,1,1000,1000
443493,59:26.8,IMU,291005218,0,0.02490461,0.08679912,-0.003661826,-3.838704,-1.176377,-8.789539,0,0,37.36992,1,1,1000,1000
443593,59:26.8,IMU,291045202,0,0.03027643,0.08186457,-0.003274312,-3.830157,-1.17456,-8.779139,0,0,37.37093,1,1,1000,1000
443645,59:26.9,IMU,291085186,0,0.04002961,0.07702919,-0.00257558,-3.817937,-1.172846,-8.760333,0,0,37.37195,1,1,1000,1000
443697,59:26.9,IMU,291125170,0,0.05052374,0.06981602,-0.001315204,-3.806623,-1.172886,-8.752153,0,0,37.37297,1,1,999,999
443797,59:27.0,IMU,291165154,0,0.05977954,0.06387602,0.00066053,-3.793593,-1.169345,-8.727203,0,0,37.37399,1,1,999,999
443851,59:27.0,IMU,291205138,0,0.06732468,0.05865151,0.003462982,-3.778473,-1.166559,-8.715739,0,0,37.375,1,1,999,999
443949,59:27.0,IMU,291245122,0,0.07482072,0.05580975,0.007197861,-3.765797,-1.162325,-8.702281,0,0,37.37602,1,1,999,999
444000,59:27.1,IMU,291285106,0,0.08015618,0.05404988,0.01168067,-3.749652,-1.159216,-8.682174,0,0,37.37703,1,1,999,999
444052,59:27.1,IMU,291325090,0,0.08491139,0.05291042,0.01692287,-3.736382,-1.154116,-8.665857,0,0,37.37805,1,1,999,999
444151,59:27.2,IMU,291365074,0,0.08967901,0.05227271,0.02268854,-3.723529,-1.149636,-8.651792,0,0,37.37907,1,1,999,999
444206,59:27.2,IMU,291405058,0,0.09253181,0.05168291,0.02930022,-3.710236,-1.14517,-8.634148,0,0,37.38011,1,1,999,999
444307,59:27.2,IMU,291445042,0,0.09153764,0.05407684,0.03656998,-3.698115,-1.138593,-8.620797,0,0,37.38112,1,1,999,999
444361,59:27.3,IMU,291485026,0,0.09377231,0.0555817,0.04408252,-3.685493,-1.134872,-8.604138,0,0,37.38214,1,1,999,999
444413,59:27.3,IMU,291525010,0,0.09585701,0.05662639,0.05201511,-3.673312,-1.126073,-8.588365,0,0,37.38316,1,1,999,999
444514,59:27.4,IMU,291564994,0,0.09518046,0.05670537,0.06049888,-3.664549,-1.119736,-8.573666,0,0,37.38414,1,1,999,999
444568,59:27.4,IMU,291604978,0,0.09548657,0.05623711,0.06930573,-3.654704,-1.112234,-8.555987,0,0,37.38516,1,1,999,999
444666,59:27.4,IMU,291644962,0,0.09850766,0.05713259,0.07803379,-3.643301,-1.104887,-8.539885,0,0,37.38618,1,1,999,999
444718,59:27.5,IMU,291684946,0,0.09863298,0.05929667,0.08735958,-3.633741,-1.095355,-8.523646,0,0,37.38719,1,1,999,999
444771,59:27.5,IMU,291724930,0,0.1012029,0.06144784,0.09675506,-3.625576,-1.085211,-8.507894,0,0,37.38821,1,1,999,999
444870,59:27.6,IMU,291764914,0,0.1036063,0.06178331,0.106381,-3.618631,-1.075742,-8.493911,0,0,37.38922,1,1,999,999
444926,59:27.6,IMU,291804898,0,0.1040334,0.06169868,0.1164991,-3.613277,-1.0652,-8.473862,0,0,37.39024,1,1,999,999
445024,59:27.6,IMU,291844882,0,0.1036047,0.06247462,0.126822,-3.604381,-1.053111,-8.455521,0,0,37.39125,1,1,999,999
445075,59:27.7,IMU,291884866,0,0.1069751,0.06445204,0.1372478,-3.600207,-1.0423,-8.444977,0,0,37.39227,1,1,999,999
445128,59:27.7,IMU,291924850,0,0.1083005,0.06517491,0.1482256,-3.595612,-1.028901,-8.424019,0,0,37.39328,1,1,999,999
445229,59:27.8,IMU,291964834,0,0.109836,0.06433589,0.1594474,-3.590022,-1.015749,-8.403367,0,0,37.39429,1,1,999,999
445284,59:27.8,IMU,292004818,0,0.1123987,0.06331265,0.1709249,-3.586386,-1.000813,-8.391797,0,0,37.39531,1,1,999,999
445384,59:27.8,IMU,292044802,0,0.1148515,0.063022,0.1829425,-3.582237,-0.9850959,-8.375263,0,0,37.39632,1,1,999,999
445435,59:27.9,IMU,292084786,0,0.1170578,0.06399123,0.1956374,-3.578852,-0.9672705,-8.361057,0,0,37.39734,1,1,999,999
445487,59:27.9,IMU,292124770,0,0.1190578,0.06216248,0.2089304,-3.576915,-0.950764,-8.342863,0,0,37.39835,1,1,999,999
445587,59:28.0,IMU,292164754,0,0.1225002,0.05623137,0.2223517,-3.573418,-0.9316543,-8.317734,0,0,37.39936,1,1,999,999
445641,59:28.0,IMU,292204738,0,0.1234724,0.04651395,0.2367011,-3.571809,-0.9136803,-8.308101,0,0,37.40038,1,1,999,999
445739,59:28.0,IMU,292244722,0,0.1220959,0.03348255,0.2517577,-3.570629,-0.8929407,-8.289078,0,0,37.40139,1,1,999,999
445790,59:28.1,IMU,292284706,0,0.1237782,0.01976516,0.2671949,-3.567657,-0.8710293,-8.268055,0,0,37.4024,1,1,999,999
445842,59:28.1,IMU,292324690,0,0.1234381,0.004993846,0.2834983,-3.567506,-0.8494266,-8.264623,0,0,37.40342,1,1,999,999
445941,59:28.2,IMU,292364674,0,0.1250189,-0.01022785,0.3001778,-3.564083,-0.8245675,-8.239594,0,0,37.40443,1,1,999,999
445996,59:28.2,IMU,292404658,0,0.1228619,-0.02494546,0.3175408,-3.563836,-0.8011965,-8.231663,0,0,37.40544,1,1,999,999
446097,59:28.2,IMU,292444642,0,0.1222015,-0.0386099,0.3350739,-3.562712,-0.7741177,-8.217698,0,0,37.40645,1,1,999,999
446153,59:28.3,IMU,292484626,0,0.1200621,-0.05109653,0.3526444,-3.565175,-0.7493616,-8.209622,0,0,37.40746,1,1,999,999
446205,59:28.3,IMU,292524610,0,0.1208211,-0.0668911,0.3703779,-3.565325,-0.7201509,-8.194203,0,0,37.40848,1,1,999,999
446306,59:28.4,IMU,292564594,0,0.1151091,-0.0831356,0.3880584,-3.568367,-0.6910766,-8.177718,0,0,37.40949,1,1,999,999
446360,59:28.4,IMU,292604578,0,0.1116541,-0.1061049,0.4056407,-3.569875,-0.6608999,-8.17034,0,0,37.4105,1,1,999,999
446458,59:28.4,IMU,292645395,0,0.1083634,-0.1211485,0.4224542,-3.575916,-0.6295622,-8.168028,0,0,37.41154,1,1,999,999
446509,59:28.5,IMU,292685379,0,0.1035458,-0.1355388,0.4380722,-3.579035,-0.5975235,-8.153235,0,0,37.41255,1,1,999,999
446561,59:28.5,IMU,292725363,0,0.09886853,-0.148891,0.4522428,-3.58424,-0.5639569,-8.146521,0,0,37.41356,1,1,999,999
446660,59:28.6,IMU,292765347,0,0.09329492,-0.1615689,0.4652451,-3.590052,-0.5314927,-8.135961,0,0,37.41457,1,1,999,999
446717,59:28.6,IMU,292805331,0,0.09190417,-0.1741625,0.4761214,-3.59932,-0.4981288,-8.126997,0,0,37.41558,1,1,999,999
446815,59:28.6,IMU,292845315,0,0.08791345,-0.1804396,0.485395,-3.606731,-0.4643628,-8.120773,0,0,37.4166,1,1,999,999
446866,59:28.7,IMU,292885299,0,0.08607865,-0.1847029,0.4924724,-3.616315,-0.4285916,-8.113219,0,0,37.41761,1,1,999,999
446919,59:28.7,IMU,292925283,0,0.08413692,-0.1869722,0.4973311,-3.627879,-0.394437,-8.109397,0,0,37.41862,1,1,999,999
447020,59:28.8,IMU,292965267,0,0.080348,-0.1864564,0.4999151,-3.639259,-0.3607451,-8.105776,0,0,37.41963,1,1,999,999
447075,59:28.8,IMU,293005251,0,0.07545716,-0.1835316,0.4999818,-3.651852,-0.3266383,-8.099642,0,0,37.42064,1,1,999,999
447175,59:28.8,IMU,293045235,0,0.06927764,-0.1764074,0.4974941,-3.666786,-0.2935751,-8.100342,0,0,37.42165,1,1,999,999
447226,59:28.9,IMU,293085219,0,0.06680572,-0.1686973,0.4924532,-3.682464,-0.2611082,-8.104378,0,0,37.42263,1,1,999,999
447278,59:28.9,IMU,293125203,0,0.06254319,-0.1610125,0.484908,-3.698655,-0.2304043,-8.106606,0,0,37.42365,1,1,1000,1000
447378,59:29.0,IMU,293165187,0,0.05843325,-0.1529445,0.4749967,-3.716074,-0.2002639,-8.108635,0,0,37.42466,1,1,1000,1000
447432,59:29.0,IMU,293205171,0,0.05435012,-0.1454678,0.4628574,-3.734948,-0.1709037,-8.109312,0,0,37.42567,1,1,1000,1000
447530,59:29.0,IMU,293245155,0,0.05016028,-0.1163608,0.4486441,-3.754415,-0.1421367,-8.115878,0,0,37.42667,1,1,1000,1000
447581,59:29.1,IMU,293285139,0,0.04935649,-0.08887956,0.4325959,-3.778284,-0.1161657,-8.127337,0,0,37.42768,1,1,1000,1000
447633,59:29.1,IMU,293325123,0,0.04777473,-0.06503084,0.4149849,-3.802358,-0.09125437,-8.135923,0,0,37.4287,1,1,1000,1000
447732,59:29.2,IMU,293365107,0,0.04527009,-0.04696701,0.3961455,-3.828182,-0.06834741,-8.142776,0,0,37.4297,1,1,1000,1000
447787,59:29.2,IMU,293405091,0,0.03958523,-0.03216526,0.3765992,-3.854577,-0.04707559,-8.151729,0,0,37.43071,1,1,1000,1000
447888,59:29.2,IMU,293445075,0,0.03834757,-0.02242073,0.3562537,-3.880383,-0.0273407,-8.160605,0,0,37.43172,1,1,1000,1000
447943,59:29.3,IMU,293485059,0,0.03860194,-0.01368585,0.3354529,-3.906095,-0.008644433,-8.168537,0,0,37.43275,1,1,1000,1000
447995,59:29.3,IMU,293525043,0,0.03616811,-0.006888445,0.3149818,-3.93148,0.009867309,-8.186766,0,0,37.43377,1,1,1000,1000
448098,59:29.4,IMU,293565027,0,0.03270715,-0.002267674,0.2949268,-3.957502,0.025413,-8.195374,0,0,37.43477,1,1,1000,1000
448152,59:29.4,IMU,293605011,0,0.03060108,0.000880278,0.2753416,-3.981277,0.04074409,-8.200491,0,0,37.43578,1,1,1000,1000
448251,59:29.4,IMU,293644995,0,0.02678838,0.00237166,0.2565127,-4.005078,0.05521416,-8.211359,0,0,37.43677,1,1,1000,1000
448302,59:29.5,IMU,293684979,0,0.02799913,0.004613094,0.2386129,-4.029138,0.06745859,-8.230309,0,0,37.43777,1,1,1000,1000
448354,59:29.5,IMU,293724963,0,0.02687993,0.00421003,0.2215308,-4.052177,0.08073508,-8.231913,0,0,37.43878,1,1,1000,1000
448453,59:29.6,IMU,293764947,0,0.02453704,0.004221931,0.2055576,-4.07241,0.09272951,-8.238411,0,0,37.43979,1,1,1000,1000
448507,59:29.6,IMU,293804931,0,0.02303581,0.005000003,0.1907095,-4.095083,0.101816,-8.263682,0,0,37.4408,1,1,1000,1000
448605,59:29.6,IMU,293844915,0,0.01872032,0.005037114,0.1767799,-4.11801,0.1115452,-8.275358,0,0,37.44181,1,1,1000,1000
448656,59:29.7,IMU,293884899,0,0.01717941,0.004893513,0.1638764,-4.13783,0.1203061,-8.283367,0,0,37.44281,1,1,1000,1000
448708,59:29.7,IMU,293924883,0,0.01558543,0.004581976,0.151944,-4.157771,0.128499,-8.291634,0,0,37.44382,1,1,1000,1000
448809,59:29.8,IMU,293964867,0,0.01312474,0.003046167,0.1407523,-4.178795,0.1355701,-8.320512,0,0,37.44483,1,1,1000,1000
448865,59:29.8,IMU,294004851,0,0.009507376,0.003227441,0.1305779,-4.197736,0.1406386,-8.329659,0,0,37.44584,1,1,1000,1000
448966,59:29.8,IMU,294044835,0,0.005126386,0.006041625,0.1213097,-4.217596,0.1473322,-8.347345,0,0,37.44684,1,1,1000,1000
449018,59:29.9,IMU,294084819,0,0.002048979,0.003114606,0.1124597,-4.237056,0.1511004,-8.367018,0,0,37.44785,1,1,1000,1000
449070,59:29.9,IMU,294124803,0,0.002501291,0.0060277,0.1039518,-4.256221,0.1540288,-8.386688,0,0,37.44886,1,1,999,999
449170,59:30.0,IMU,294164787,0,-0.00293804,0.005826306,0.09623684,-4.273806,0.1590619,-8.392501,0,0,37.44986,1,1,999,999
449224,59:30.0,IMU,294204771,0,-0.009283171,0.00208017,0.08886879,-4.290896,0.160784,-8.425543,0,0,37.45087,1,1,999,999
449322,59:30.0,IMU,294244755,0,-0.007701932,0.00441093,0.08175586,-4.307254,0.164622,-8.43885,0,0,37.45188,1,1,999,999
449373,59:30.1,IMU,294284739,0,-0.0116855,0.005057102,0.07493453,-4.325356,0.1668137,-8.44915,0,0,37.45288,1,1,999,999
449425,59:30.1,IMU,294324723,0,-0.01742755,0.002339621,0.06834597,-4.343862,0.1664057,-8.472629,0,0,37.45389,1,1,999,999
449524,59:30.2,IMU,294364707,0,-0.01957433,0.005392061,0.06180929,-4.358933,0.1674805,-8.493919,0,0,37.4549,1,1,999,999
449578,59:30.2,IMU,294404691,0,-0.02130722,0.002926126,0.05557531,-4.377322,0.1681566,-8.516935,0,0,37.4559,1,1,999,999
449678,59:30.2,IMU,294444675,0,-0.02498997,0.002874025,0.04949583,-4.390813,0.1669451,-8.520795,0,0,37.45691,1,1,999,999
449734,59:30.3,IMU,294484659,0,-0.02656674,0.004456919,0.04347267,-4.408035,0.1664564,-8.545183,0,0,37.45791,1,1,999,999
449786,59:30.3,IMU,294524643,0,-0.02750595,0.001787283,0.03734071,-4.421416,0.1654265,-8.56023,0,0,37.45892,1,1,999,999
449887,59:30.4,IMU,294564627,0,-0.03106795,0.005825044,0.03156877,-4.437957,0.1630891,-8.579309,0,0,37.45992,1,1,999,999
449941,59:30.4,IMU,294604611,0,-0.03158209,0.001925313,0.02576146,-4.453188,0.1613058,-8.602484,0,0,37.46093,1,1,999,999
450039,59:30.4,IMU,294644595,0,-0.02771645,0.003277072,0.01989793,-4.465697,0.1596233,-8.606315,0,0,37.46193,1,1,999,999
450090,59:30.5,IMU,294684579,0,-0.01892424,0.005854111,0.01408851,-4.481133,0.1558155,-8.63256,0,0,37.46294,1,1,999,999
450143,59:30.5,IMU,294725396,0,-0.01261303,0.005485514,0.009038249,-4.494822,0.1548258,-8.638462,0,0,37.46397,1,1,999,999
450242,59:30.6,IMU,294765380,0,-0.009332424,0.005252157,0.004584123,-4.507922,0.1517665,-8.658052,0,0,37.46497,1,1,999,999
450296,59:30.6,IMU,294805364,0,-0.00397147,0.003660856,0.00054216,-4.520427,0.1493104,-8.671092,0,0,37.46598,1,1,999,999
450394,59:30.6,IMU,294845348,0,0.001518538,0.003808955,-0.00267595,-4.532028,0.1462171,-8.676958,0,0,37.46698,1,1,999,999
450445,59:30.7,IMU,294885332,0,0.003339885,0.0038781,-0.004994832,-4.544303,0.1431713,-8.688794,0,0,37.46799,1,1,999,999
450497,59:30.7,IMU,294925316,0,0.003751389,0.003869809,-0.006570382,-4.555164,0.1397347,-8.696086,0,0,37.46899,1,1,999,999
450598,59:30.8,IMU,294965300,0,0.005793551,0.003934484,-0.007553949,-4.565778,0.1354425,-8.706872,0,0,37.47,1,1,999,999
450654,59:30.8,IMU,295005284,0,0.003802477,0.003969513,-0.007800399,-4.577325,0.1336644,-8.715336,0,0,37.471,1,1,999,999
450754,59:30.8,IMU,295045268,0,0.004199041,0.003974518,-0.007494102,-4.587047,0.1290571,-8.718388,0,0,37.472,1,1,999,999
450805,59:30.9,IMU,295085252,0,0.006111521,0.004066056,-0.006873366,-4.597016,0.1264047,-8.727876,0,0,37.47301,1,1,999,999
450857,59:30.9,IMU,295125236,0,0.004744304,0.004044007,-0.005597882,-4.607569,0.1229672,-8.737375,0,0,37.47401,1,1,1000,1000
450957,59:31.0,IMU,295165220,0,-0.000259847,0.002168152,-0.004017784,-4.616571,0.120748,-8.748765,0,0,37.47499,1,1,1000,1000
451011,59:31.0,IMU,295205204,0,-0.002860629,0.003313003,-0.002583897,-4.624612,0.1174698,-8.755466,0,0,37.47599,1,1,1000,1000
451109,59:31.0,IMU,295245188,0,-0.004246776,0.002443161,-0.001231632,-4.63358,0.1147182,-8.761716,0,0,37.477,1,1,1000,1000
451160,59:31.1,IMU,295285172,0,-0.005689269,0.002598845,0.000354075,-4.641091,0.1110793,-8.760984,0,0,37.478,1,1,1000,1000
451212,59:31.1,IMU,295325156,0,-0.007729311,0.004712186,0.002145013,-4.648072,0.1086047,-8.766754,0,0,37.479,1,1,1000,1000
451311,59:31.2,IMU,295365140,0,-0.01083914,0.005424862,0.003585077,-4.656805,0.1064098,-8.769075,0,0,37.48,1,1,1000,1000
451366,59:31.2,IMU,295405124,0,-0.01325005,0.004671578,0.004864716,-4.663215,0.1029579,-8.770509,0,0,37.48101,1,1,1000,1000
451466,59:31.2,IMU,295445108,0,-0.01537074,0.005462038,0.006086765,-4.671155,0.1021346,-8.769675,0,0,37.48201,1,1,1000,1000
451522,59:31.3,IMU,295485092,0,-0.01608237,0.005308723,0.007179847,-4.676601,0.1010287,-8.76481,0,0,37.48301,1,1,1000,1000
451574,59:31.3,IMU,295525076,0,-0.01552552,0.005214635,0.008036425,-4.682732,0.09706824,-8.758558,0,0,37.48401,1,1,1000,1000
451675,59:31.4,IMU,295565060,0,-0.01450229,0.005045741,0.008800492,-4.688794,0.09508981,-8.752839,0,0,37.48504,1,1,1000,1000
451729,59:31.4,IMU,295605044,0,-0.01696372,0.00507289,0.009692992,-4.692874,0.09346141,-8.747415,0,0,37.48604,1,1,1000,1000
451827,59:31.4,IMU,295645028,0,-0.01721281,0.004953245,0.01039822,-4.697202,0.092342,-8.741791,0,0,37.48705,1,1,1000,1000
451878,59:31.5,IMU,295685012,0,-0.01494088,0.004863899,0.01080075,-4.703868,0.09108184,-8.737638,0,0,37.48804,1,1,1000,1000
451930,59:31.5,IMU,295724996,0,-0.01778829,0.004754685,0.01135785,-4.706796,0.08986986,-8.725348,0,0,37.48902,1,1,1000,1000
452029,59:31.6,IMU,295764980,0,-0.01537848,0.004734141,0.01143925,-4.712057,0.08834558,-8.722849,0,0,37.49002,1,1,1000,1000
452083,59:31.6,IMU,295804964,0,-0.01482303,0.004730434,0.01173842,-4.717242,0.08860911,-8.71672,0,0,37.49103,1,1,1000,1000
452183,59:31.6,IMU,295844948,0,-0.01632903,0.004723647,0.01215629,-4.719979,0.08739465,-8.711555,0,0,37.49203,1,1,1000,1000
452234,59:31.7,IMU,295884932,0,-0.01598733,0.004609111,0.01219025,-4.724339,0.08548256,-8.706348,0,0,37.49303,1,1,1000,1000
452286,59:31.7,IMU,295924916,0,-0.01893672,0.004561842,0.01244888,-4.729361,0.08406197,-8.702607,0,0,37.49403,1,1,1000,1000
452386,59:31.8,IMU,295964900,0,-0.01759678,0.004501583,0.01219285,-4.732115,0.08517238,-8.690817,0,0,37.49503,1,1,1000,1000
452443,59:31.8,IMU,296004884,0,-0.01929083,0.004544468,0.01195974,-4.73617,0.08475979,-8.680841,0,0,37.49603,1,1,1000,1000
452544,59:31.8,IMU,296044868,0,-0.01703063,0.004525757,0.01140753,-4.738916,0.08356099,-8.676379,0,0,37.49703,1,1,1000,1000
452595,59:31.9,IMU,296084852,0,-0.01466208,0.004434461,0.01080427,-4.741898,0.08331088,-8.673529,0,0,37.49803,1,1,1000,1000
452647,59:31.9,IMU,296124836,0,-0.01258564,0.004427148,0.01027707,-4.747522,0.08388745,-8.669627,0,0,37.49903,1,1,999,999
452747,59:32.0,IMU,296164820,0,-0.01435965,0.004443343,0.009891413,-4.748951,0.08368749,-8.66636,0,0,37.50003,1,1,999,999
452801,59:32.0,IMU,296204804,0,-0.01670117,0.007309404,0.009788434,-4.752734,0.08445977,-8.654296,0,0,37.50103,1,1,999,999
452899,59:32.0,IMU,296244788,0,-0.01731756,0.01109337,0.009797867,-4.753688,0.08390342,-8.643253,0,0,37.50203,1,1,999,999
452950,59:32.1,IMU,296284772,0,-0.01657863,0.01333779,0.009786971,-4.757434,0.08397209,-8.639577,0,0,37.50303,1,1,999,999
453002,59:32.1,IMU,296324756,0,-0.01676507,0.01381657,0.009777621,-4.762111,0.08417873,-8.63509,0,0,37.50403,1,1,999,999
453101,59:32.2,IMU,296364740,0,-0.01611139,0.01643192,0.009573673,-4.766354,0.08416958,-8.631704,0,0,37.50503,1,1,999,999
453155,59:32.2,IMU,296404724,0,-0.01414919,0.01688866,0.009145366,-4.768875,0.08441564,-8.626848,0,0,37.50603,1,1,999,999
453255,59:32.2,IMU,296444708,0,-0.01203809,0.02079391,0.008911944,-4.770926,0.08489624,-8.620445,0,0,37.50703,1,1,999,999
453310,59:32.3,IMU,296484692,0,-0.01033656,0.02232968,0.008619457,-4.773786,0.08484994,-8.608257,0,0,37.50803,1,1,999,999
453363,59:32.3,IMU,296524676,0,-0.01232096,0.02166539,0.008644043,-4.776868,0.08440959,-8.598615,0,0,37.50903,1,1,999,999
453464,59:32.4,IMU,296564660,0,-0.01031242,0.01970058,0.008278124,-4.780777,0.08548835,-8.602955,0,0,37.51003,1,1,999,999
453518,59:32.4,IMU,296604644,0,-0.008661252,0.02254563,0.00805844,-4.783194,0.08690675,-8.605412,0,0,37.51102,1,1,999,999
453616,59:32.4,IMU,296644628,0,-0.008125152,0.02538978,0.007994957,-4.783635,0.08775608,-8.588762,0,0,37.51202,1,1,999,999
453667,59:32.5,IMU,296684612,0,-0.006818214,0.02686837,0.007560658,-4.784638,0.08696603,-8.580644,0,0,37.51302,1,1,999,999
453720,59:32.5,IMU,296724596,0,-0.005671408,0.02425714,0.00732062,-4.788889,0.08810575,-8.583871,0,0,37.51402,1,1,999,999
453819,59:32.6,IMU,296764580,0,-0.004610326,0.02247152,0.007101093,-4.791455,0.09032949,-8.585709,0,0,37.51501,1,1,999,999
453873,59:32.6,IMU,296805397,0,-0.002617376,0.02723096,0.006617774,-4.790881,0.09106049,-8.565627,0,0,37.51604,1,1,999,999
453971,59:32.6,IMU,296845381,0,-0.002233211,0.02543926,0.006453492,-4.79032,0.09193148,-8.564066,0,0,37.51704,1,1,999,999
454022,59:32.7,IMU,296885365,0,-0.001463224,0.0230988,0.006289602,-4.792758,0.09296804,-8.568439,0,0,37.51804,1,1,999,999
454074,59:32.7,IMU,296925349,0,-0.000861155,0.02104122,0.006094977,-4.794797,0.09482518,-8.573468,0,0,37.51903,1,1,999,999
454174,59:32.8,IMU,296965333,0,0.000970989,0.02202786,0.005891483,-4.79283,0.09522606,-8.560467,0,0,37.52003,1,1,999,999
454231,59:32.8,IMU,297005317,0,0.001804008,0.02193238,0.005364854,-4.790295,0.09614071,-8.556047,0,0,37.52103,1,1,999,999
454331,59:32.8,IMU,297045301,0,0.002113957,0.02098314,0.004984987,-4.792333,0.09840701,-8.559855,0,0,37.52202,1,1,999,999
454382,59:32.9,IMU,297085285,0,0.002298135,0.02162435,0.004879263,-4.792809,0.09852761,-8.557346,0,0,37.52302,1,1,999,999
454434,59:32.9,IMU,297125269,0,0.002390098,0.01965393,0.004806673,-4.792506,0.1000769,-8.560179,0,0,37.52402,1,1,999,999
454534,59:33.0,IMU,297165253,0,0.003657594,0.01959628,0.004302614,-4.787475,0.1004778,-8.540028,0,0,37.52501,1,1,999,999
454588,59:33.0,IMU,297205237,0,0.003713978,0.01812493,0.004112752,-4.787357,0.1010078,-8.545072,0,0,37.52601,1,1,999,999
454686,59:33.0,IMU,297245221,0,0.003701629,0.01676645,0.003917923,-4.786621,0.1027636,-8.544155,0,0,37.52698,1,1,999,999
454737,59:33.1,IMU,297285205,0,0.003847931,0.01549044,0.003956185,-4.783711,0.1037986,-8.546804,0,0,37.52798,1,1,999,999
454789,59:33.1,IMU,297325189,0,0.004862555,0.01422582,0.003897821,-4.783547,0.1031236,-8.548182,0,0,37.52898,1,1,999,999
454888,59:33.2,IMU,297365173,0,0.006330872,0.01303266,0.003652757,-4.77908,0.1050196,-8.529445,0,0,37.52997,1,1,999,999
454988,59:33.2,IMU,297405157,0,0.005397504,0.01179307,0.003481819,-4.778528,0.1069881,-8.534782,0,0,37.53097,1,1,999,999
455088,59:33.2,IMU,297445141,0,0.005317192,0.01232607,0.003215024,-4.775258,0.1069396,-8.535628,0,0,37.53196,1,1,999,999
455142,59:33.3,IMU,297485125,0,0.005214958,0.01440294,0.003124655,-4.773828,0.1081748,-8.535465,0,0,37.53296,1,1,999,999
455196,59:33.3,IMU,297525109,0,0.005135725,0.01265395,0.003189162,-4.771808,0.1090064,-8.538472,0,0,37.53395,1,1,999,999
455297,59:33.4,IMU,297565093,0,0.004979347,0.01175786,0.003308914,-4.768969,0.1114528,-8.541229,0,0,37.53495,1,1,999,999
455351,59:33.4,IMU,297605077,0,0.00817105,0.01096537,0.003063924,-4.767417,0.1113227,-8.544125,0,0,37.53594,1,1,999,999
455449,59:33.4,IMU,297645061,0,0.01128049,0.01028012,0.002917354,-4.76638,0.1126893,-8.539931,0,0,37.53696,1,1,999,999
455500,59:33.5,IMU,297685045,0,0.01286849,0.01161619,0.002727202,-4.761615,0.1133081,-8.534953,0,0,37.53796,1,1,999,999
455552,59:33.5,IMU,297725029,0,0.01248174,0.01129054,0.002757079,-4.760541,0.1142726,-8.541821,0,0,37.53896,1,1,999,999
455651,59:33.6,IMU,297765013,0,0.01089129,0.009578396,0.002804611,-4.758689,0.1147842,-8.541626,0,0,37.53995,1,1,999,999
455705,59:33.6,IMU,297804997,0,0.009273699,0.008859688,0.002817178,-4.756574,0.1166393,-8.544154,0,0,37.54092,1,1,999,999
455803,59:33.6,IMU,297844981,0,0.01171369,0.008885805,0.002583503,-4.752963,0.1164932,-8.539906,0,0,37.54191,1,1,999,999
455854,59:33.7,IMU,297884965,0,0.01080452,0.008788846,0.002580542,-4.751176,0.1177952,-8.539446,0,0,37.54291,1,1,999,999
455906,59:33.7,IMU,297924949,0,0.01008488,0.006833003,0.002707521,-4.748011,0.1185228,-8.541561,0,0,37.5439,1,1,999,999
456006,59:33.8,IMU,297964933,0,0.009459271,0.006599724,0.002868294,-4.744671,0.1182861,-8.542727,0,0,37.5449,1,1,999,999
456062,59:33.8,IMU,298004917,0,0.008953189,0.006371312,0.002984759,-4.74297,0.119738,-8.544467,0,0,37.54589,1,1,999,999
456164,59:33.8,IMU,298044901,0,0.008466994,0.006148625,0.003051268,-4.739852,0.1195319,-8.547462,0,0,37.54688,1,1,999,999
456215,59:33.9,IMU,298084885,0,0.00793354,0.005954453,0.003153835,-4.738726,0.1208383,-8.549278,0,0,37.54788,1,1,999,999
456267,59:33.9,IMU,298124869,0,0.007527246,0.005774667,0.003252915,-4.736185,0.120074,-8.552021,0,0,37.54887,1,1,1000,1000
456367,59:34.0,IMU,298164853,0,0.0072081,0.005611707,0.003311515,-4.734246,0.1228219,-8.554903,0,0,37.54987,1,1,1000,1000
456421,59:34.0,IMU,298204837,0,0.008720973,0.005476301,0.003317226,-4.731887,0.1215887,-8.557362,0,0,37.55086,1,1,1000,1000
456519,59:34.0,IMU,298244821,0,0.01211686,0.005368579,0.003079332,-4.728984,0.123044,-8.55514,0,0,37.55185,1,1,1000,1000
456570,59:34.1,IMU,298284805,0,0.01342965,0.005232521,0.00275507,-4.726607,0.1237046,-8.556591,0,0,37.55285,1,1,1000,1000
456622,59:34.1,IMU,298324789,0,0.01322943,0.005154418,0.002605707,-4.723918,0.1239809,-8.556678,0,0,37.55384,1,1,1000,1000
456721,59:34.2,IMU,298364773,0,0.01197958,0.005063006,0.002470757,-4.723427,0.124768,-8.559591,0,0,37.55483,1,1,1000,1000
456775,59:34.2,IMU,298404757,0,0.01049949,0.004965757,0.002419423,-4.719543,0.126515,-8.560917,0,0,37.55582,1,1,1000,1000
456875,59:34.2,IMU,298444741,0,0.009863924,0.004887894,0.002189957,-4.719346,0.1249035,-8.563498,0,0,37.55682,1,1,1000,1000
456929,59:34.3,IMU,298484725,0,0.01018939,0.004844235,0.002048612,-4.718143,0.1247666,-8.564053,0,0,37.55781,1,1,1000,1000
456982,59:34.3,IMU,298524709,0,0.008199733,0.002931014,0.001929105,-4.715439,0.1261679,-8.565865,0,0,37.5588,1,1,1000,1000
457084,59:34.4,IMU,298564693,0,0.007631085,0.00323204,0.001748844,-4.712999,0.1254011,-8.566408,0,0,37.55979,1,1,1000,1000
457138,59:34.4,IMU,298604677,0,0.007231394,0.004733099,0.001734832,-4.710022,0.1264037,-8.560076,0,0,37.56078,1,1,1000,1000
457238,59:34.4,IMU,298644661,0,0.007168977,0.005762339,0.001925417,-4.709043,0.1264802,-8.563762,0,0,37.56178,1,1,1000,1000
457289,59:34.5,IMU,298684645,0,0.008102773,0.00637803,0.00207917,-4.708283,0.1270015,-8.567387,0,0,37.56277,1,1,1000,1000
457342,59:34.5,IMU,298724629,0,0.008208595,0.006691424,0.002276455,-4.705782,0.1266367,-8.56779,0,0,37.56376,1,1,1000,1000
457441,59:34.6,IMU,298764613,0,0.008396802,0.005797966,0.002485955,-4.705459,0.1268589,-8.569388,0,0,37.56475,1,1,1000,1000
457495,59:34.6,IMU,298804597,0,0.008471635,0.004266512,0.0027355,-4.704024,0.1263954,-8.572649,0,0,37.56574,1,1,1000,1000
457593,59:34.6,IMU,298844581,0,0.00914279,0.003602284,0.002842521,-4.701507,0.1268723,-8.572746,0,0,37.56673,1,1,1000,1000
457644,59:34.7,IMU,298885398,0,0.00885886,0.005350471,0.003024491,-4.701183,0.1251909,-8.577812,0,0,37.56775,1,1,1000,1000
457696,59:34.7,IMU,298925382,0,0.009472759,0.006079967,0.003165299,-4.699795,0.1269619,-8.579671,0,0,37.56874,1,1,1000,1000
457796,59:34.8,IMU,298965366,0,0.00858795,0.005206428,0.003369238,-4.700366,0.1270929,-8.582117,0,0,37.56973,1,1,1000,1000
457851,59:34.8,IMU,299005350,0,0.008042788,0.004425576,0.003439787,-4.697604,0.1261955,-8.581931,0,0,37.57072,1,1,1000,1000
457952,59:34.8,IMU,299045334,0,0.008509694,0.003917496,0.003392352,-4.69722,0.1269779,-8.583012,0,0,37.57171,1,1,1000,1000
458004,59:34.9,IMU,299085318,0,0.008407865,0.003772174,0.003415634,-4.69579,0.1263973,-8.584522,0,0,37.5727,1,1,1000,1000
458056,59:34.9,IMU,299125302,0,0.006521728,0.003654393,0.003459847,-4.694162,0.1264429,-8.586626,0,0,37.57369,1,1,999,999
458156,59:35.0,IMU,299165286,0,0.006371135,0.00306568,0.00340186,-4.692674,0.1261408,-8.586044,0,0,37.57468,1,1,999,999
458210,59:35.0,IMU,299205270,0,0.006128574,0.002576191,0.00338045,-4.691867,0.1264281,-8.587402,0,0,37.57567,1,1,999,999
458308,59:35.0,IMU,299245254,0,0.004625858,0.003166473,0.003521836,-4.68987,0.1271695,-8.588379,0,0,37.57666,1,1,999,999
458359,59:35.1,IMU,299285238,0,0.005594218,0.004367066,0.003495475,-4.688878,0.1276387,-8.589822,0,0,37.57765,1,1,999,999
458411,59:35.1,IMU,299325222,0,0.005420668,0.004896811,0.00344503,-4.687641,0.1257724,-8.591213,0,0,37.57862,1,1,999,999
458510,59:35.2,IMU,299365206,0,0.006281158,0.004209113,0.003495736,-4.68615,0.1267722,-8.591071,0,0,37.57961,1,1,999,999
458565,59:35.2,IMU,299405190,0,0.005769662,0.00505064,0.003419258,-4.686769,0.125956,-8.593172,0,0,37.5806,1,1,999,999
458665,59:35.2,IMU,299445174,0,0.007676397,0.005370555,0.003331275,-4.684676,0.1258614,-8.591427,0,0,37.58158,1,1,999,999
458719,59:35.3,IMU,299485158,0,0.008453679,0.006257135,0.00333249,-4.683685,0.1251235,-8.595082,0,0,37.58257,1,1,999,999
458772,59:35.3,IMU,299525142,0,0.008542998,0.006707658,0.003306494,-4.68236,0.1258329,-8.594133,0,0,37.58356,1,1,999,999
458874,59:35.4,IMU,299565126,0,0.00660163,0.005912789,0.003378537,-4.681641,0.1254983,-8.594662,0,0,37.58455,1,1,999,999
458928,59:35.4,IMU,299605110,0,0.005608038,0.006338163,0.003413898,-4.680312,0.1232355,-8.598606,0,0,37.58554,1,1,999,999
459026,59:35.4,IMU,299645094,0,0.005069481,0.006998325,0.003468915,-4.679179,0.126052,-8.597048,0,0,37.58653,1,1,999,999
459077,59:35.5,IMU,299685078,0,0.005843406,0.007503565,0.003394665,-4.679606,0.1258417,-8.59943,0,0,37.58752,1,1,999,999
459129,59:35.5,IMU,299725062,0,0.005706025,0.007358641,0.003424302,-4.67823,0.1241854,-8.600959,0,0,37.58853,1,1,999,999
459228,59:35.6,IMU,299765046,0,0.004850958,0.009296522,0.003591342,-4.677589,0.1250716,-8.601093,0,0,37.58952,1,1,999,999
459282,59:35.6,IMU,299805030,0,0.004457564,0.009305106,0.003680114,-4.678405,0.1252435,-8.605107,0,0,37.59051,1,1,999,999
459382,59:35.6,IMU,299845014,0,0.004422511,0.006982943,0.003616744,-4.676394,0.1246865,-8.606467,0,0,37.59149,1,1,999,999
459433,59:35.7,IMU,299884998,0,0.005133105,0.007535745,0.003646018,-4.67635,0.1237787,-8.605506,0,0,37.59246,1,1,999,999
459485,59:35.7,IMU,299924982,0,0.003699246,0.005171007,0.003792996,-4.675712,0.1239323,-8.610529,0,0,37.59344,1,1,999,999
459585,59:35.8,IMU,299964966,0,0.003092072,0.004926359,0.00376727,-4.673277,0.1233936,-8.600983,0,0,37.59443,1,1,999,999
459640,59:35.8,IMU,300004950,0,0.004048226,0.004580536,0.003680578,-4.673026,0.1241285,-8.60707,0,0,37.59542,1,1,999,999
459742,59:35.8,IMU,300044934,0,0.004629862,0.005780355,0.003705611,-4.671834,0.1237194,-8.600643,0,0,37.59641,1,1,999,999
459794,59:35.9,IMU,300084918,0,0.00612974,0.007470777,0.003669054,-4.67224,0.1235521,-8.60883,0,0,37.59739,1,1,999,999
459846,59:35.9,IMU,300124902,0,0.006373452,0.007559445,0.003679646,-4.671722,0.1233535,-8.612965,0,0,37.59838,1,1,1000,1000
459946,59:36.0,IMU,300164886,0,0.00349437,0.00542338,0.003979571,-4.669814,0.1218964,-8.606671,0,0,37.59937,1,1,1000,1000
460000,59:36.0,IMU,300204870,0,0.003812385,0.006938784,0.003947102,-4.669034,0.122256,-8.605797,0,0,37.60035,1,1,1000,1000
460098,59:36.0,IMU,300244854,0,0.003914575,0.006543501,0.003920269,-4.667905,0.1223758,-8.606577,0,0,37.60134,1,1,1000,1000
460149,59:36.1,IMU,300284838,0,0.005691499,0.007979346,0.003919599,-4.667317,0.1227863,-8.615293,0,0,37.60233,1,1,1000,1000
460201,59:36.1,IMU,300324822,0,0.006540256,0.006817205,0.004074445,-4.667111,0.1210723,-8.615138,0,0,37.60331,1,1,1000,1000
460300,59:36.2,IMU,300364806,0,0.002794469,0.006601635,0.004377934,-4.665019,0.1215106,-8.611868,0,0,37.6043,1,1,1000,1000
460354,59:36.2,IMU,300404790,0,0.002992349,0.00634123,0.004369412,-4.665028,0.1224146,-8.612656,0,0,37.60529,1,1,1000,1000
460454,59:36.2,IMU,300444774,0,0.003191292,0.006152054,0.004367376,-4.664108,0.1211016,-8.614456,0,0,37.60627,1,1,1000,1000
460508,59:36.3,IMU,300484758,0,0.0033177,0.006880972,0.004294503,-4.663542,0.120953,-8.619648,0,0,37.60725,1,1,1000,1000
460560,59:36.3,IMU,300524742,0,0.003397238,0.008287177,0.004363446,-4.663302,0.1214623,-8.617783,0,0,37.60824,1,1,1000,1000
460662,59:36.4,IMU,300564726,0,0.003560693,0.007785182,0.004279808,-4.662632,0.1204453,-8.619632,0,0,37.60923,1,1,1000,1000
460717,59:36.4,IMU,300604710,0,0.0035837,0.005707857,0.004225011,-4.660632,0.1205227,-8.62005,0,0,37.61021,1,1,1000,1000
460815,59:36.4,IMU,300644694,0,0.003680791,0.005656213,0.004266835,-4.660158,0.12046,-8.620394,0,0,37.6112,1,1,1000,1000
460866,59:36.5,IMU,300684678,0,0.003743853,0.005429678,0.004287278,-4.660273,0.1207917,-8.621752,0,0,37.61218,1,1,1000,1000
460919,59:36.5,IMU,300724662,0,0.005496661,0.00534845,0.004102062,-4.65874,0.1209703,-8.622946,0,0,37.61317,1,1,1000,1000
461018,59:36.6,IMU,300764646,0,0.005432526,0.005227862,0.004115523,-4.657741,0.1198637,-8.624851,0,0,37.61415,1,1,1000,1000
461072,59:36.6,IMU,300804630,0,0.005319105,0.007906757,0.004211745,-4.657714,0.120604,-8.624587,0,0,37.61514,1,1,1000,1000
461170,59:36.6,IMU,300844614,0,0.006710756,0.009389837,0.004225223,-4.656896,0.1199082,-8.618254,0,0,37.61612,1,1,1000,1000
461221,59:36.7,IMU,300884598,0,0.006880132,0.01043618,0.00392495,-4.655554,0.1195965,-8.622705,0,0,37.61711,1,1,1000,1000
461273,59:36.7,IMU,300924582,0,0.005830672,0.009759996,0.003585728,-4.655392,0.1202525,-8.622908,0,0,37.61809,1,1,1000,1000
461373,59:36.8,IMU,300965399,0,0.004724381,0.01215662,0.003442548,-4.653718,0.1185911,-8.625367,0,0,37.6191,1,1,1000,1000
461428,59:36.8,IMU,301005383,0,0.003271973,0.01148222,0.003394294,-4.653986,0.1206682,-8.621674,0,0,37.62008,1,1,1000,1000
461529,59:36.8,IMU,301045367,0,0.003200393,0.009556223,0.003510591,-4.653773,0.1194646,-8.625487,0,0,37.62107,1,1,1000,1000
461580,59:36.9,IMU,301085351,0,0.00329297,0.009496022,0.003657527,-4.653094,0.1186332,-8.624424,0,0,37.62205,1,1,1000,1000
461633,59:36.9,IMU,301125335,0,0.002538483,0.009451737,0.003810591,-4.650334,0.118997,-8.625809,0,0,37.62304,1,1,999,999
461733,59:37.0,IMU,301165319,0,0.001947508,0.009633747,0.003915598,-4.651155,0.1179948,-8.625401,0,0,37.62402,1,1,999,999
461787,59:37.0,IMU,301205303,0,0.000719332,0.01029838,0.004043048,-4.648049,0.11797,-8.628019,0,0,37.625,1,1,999,999
461885,59:37.0,IMU,301245287,0,0.002039017,0.008593601,0.004222502,-4.647587,0.118392,-8.62614,0,0,37.62598,1,1,999,999
461936,59:37.1,IMU,301285271,0,0.002742207,0.007953202,0.004356096,-4.646295,0.1183711,-8.624787,0,0,37.62697,1,1,999,999
461988,59:37.1,IMU,301325255,0,0.002412637,0.007523077,0.004661165,-4.645482,0.118199,-8.625098,0,0,37.62795,1,1,999,999
462088,59:37.2,IMU,301365239,0,0.002555189,0.007593001,0.004930149,-4.645464,0.1174187,-8.630974,0,0,37.62894,1,1,999,999
462142,59:37.2,IMU,301405223,0,0.003969868,0.005975519,0.004936811,-4.643222,0.1166037,-8.631696,0,0,37.62989,1,1,999,999
462242,59:37.2,IMU,301445207,0,0.01122591,0.009375039,0.004567781,-4.642091,0.1158121,-8.627641,0,0,37.63087,1,1,999,999
462296,59:37.3,IMU,301485191,0,0.02038821,0.01665636,0.004143194,-4.641533,0.1181943,-8.637165,0,0,37.63186,1,1,999,999
462348,59:37.3,IMU,301525175,0,0.02915757,0.0265419,0.003976298,-4.641902,0.1192759,-8.637344,0,0,37.63284,1,1,999,999
462450,59:37.4,IMU,301565159,0,0.04372431,0.03516386,0.004041021,-4.645072,0.1195122,-8.651987,0,0,37.63382,1,1,999,999
462504,59:37.4,IMU,301605143,0,0.05616774,0.04840647,0.004823406,-4.645257,0.1201391,-8.654709,0,0,37.6348,1,1,999,999
462603,59:37.4,IMU,301645127,0,0.06902435,0.05958584,0.006514013,-4.647077,0.1222228,-8.664885,0,0,37.63579,1,1,999,999
462654,59:37.5,IMU,301685111,0,0.08530154,0.06824236,0.008990623,-4.648512,0.1240697,-8.670783,0,0,37.63677,1,1,999,999
462706,59:37.5,IMU,301725095,0,0.0950602,0.07758594,0.01282549,-4.650249,0.1249762,-8.679413,0,0,37.63775,1,1,999,999
462805,59:37.6,IMU,301765079,0,0.102493,0.0807375,0.01768485,-4.652388,0.1289946,-8.68556,0,0,37.63873,1,1,999,999
462859,59:37.6,IMU,301805063,0,0.1097032,0.08822425,0.02365383,-4.652295,0.1323081,-8.694342,0,0,37.63974,1,1,999,999
462957,59:37.6,IMU,301845047,0,0.1145711,0.09631336,0.03081708,-4.653089,0.1339537,-8.709169,0,0,37.64072,1,1,999,999
463008,59:37.7,IMU,301885031,0,0.1198671,0.09637244,0.03867064,-4.652413,0.1381278,-8.723075,0,0,37.6417,1,1,999,999
463060,59:37.7,IMU,301925015,0,0.1232802,0.1006864,0.04756368,-4.651484,0.1425741,-8.73053,0,0,37.64268,1,1,999,999
463160,59:37.8,IMU,301964999,0,0.1258854,0.1037672,0.05709115,-4.646307,0.1464636,-8.735968,0,0,37.64364,1,1,999,999
463215,59:37.8,IMU,302004983,0,0.1293095,0.1016947,0.06741116,-4.642415,0.1511483,-8.754969,0,0,37.64462,1,1,999,999
463316,59:37.8,IMU,302044967,0,0.132502,0.1067323,0.07820485,-4.639786,0.1586491,-8.770602,0,0,37.6456,1,1,999,999
463368,59:37.9,IMU,302084951,0,0.1368644,0.1080903,0.08921862,-4.632014,0.1628809,-8.784356,0,0,37.64658,1,1,999,999
463421,59:37.9,IMU,302124935,0,0.1389129,0.1085456,0.1009663,-4.624507,0.1713738,-8.792004,0,0,37.64756,1,1,999,999
463521,59:38.0,IMU,302164919,0,0.1432923,0.110534,0.1127729,-4.616378,0.1794443,-8.814583,0,0,37.64854,1,1,999,999
463575,59:38.0,IMU,302204903,0,0.1466827,0.1103742,0.1248872,-4.605914,0.1894216,-8.83121,0,0,37.64952,1,1,999,999
463673,59:38.0,IMU,302244887,0,0.1492021,0.1161419,0.1374204,-4.593072,0.1991569,-8.845557,0,0,37.6505,1,1,999,999
463724,59:38.1,IMU,302284871,0,0.1519043,0.1147127,0.1501576,-4.582522,0.208383,-8.864494,0,0,37.65148,1,1,999,999
463776,59:38.1,IMU,302324855,0,0.1562837,0.1203147,0.1631305,-4.568219,0.2204785,-8.884813,0,0,37.65246,1,1,999,999
463875,59:38.2,IMU,302364839,0,0.160934,0.1176664,0.176198,-4.554,0.2327058,-8.908633,0,0,37.65344,1,1,999,999
463929,59:38.2,IMU,302404823,0,0.1649328,0.1213963,0.1895621,-4.538318,0.2456233,-8.929049,0,0,37.65442,1,1,999,999
464029,59:38.2,IMU,302444807,0,0.1696628,0.1215072,0.2030773,-4.520621,0.2609458,-8.953871,0,0,37.6554,1,1,999,999
464084,59:38.3,IMU,302484791,0,0.1748631,0.1273237,0.2168652,-4.502686,0.2761305,-8.974653,0,0,37.65638,1,1,999,999
464136,59:38.3,IMU,302524775,0,0.1793731,0.1254762,0.2310734,-4.482831,0.2923303,-9.00211,0,0,37.65736,1,1,999,999
464238,59:38.4,IMU,302564759,0,0.1828502,0.1267759,0.2456876,-4.46108,0.3099129,-9.026024,0,0,37.65834,1,1,999,999
464293,59:38.4,IMU,302604743,0,0.1870046,0.1290188,0.2605934,-4.437428,0.3290872,-9.052242,0,0,37.65931,1,1,999,999
464392,59:38.4,IMU,302644727,0,0.1936048,0.129411,0.2758889,-4.413346,0.3492504,-9.081018,0,0,37.66029,1,1,999,999
464443,59:38.5,IMU,302684711,0,0.2002391,0.1303786,0.2917755,-4.387074,0.3708802,-9.104175,0,0,37.66127,1,1,999,999
464496,59:38.5,IMU,302724695,0,0.2061436,0.133843,0.3083474,-4.358655,0.3931725,-9.132996,0,0,37.66225,1,1,999,999
464595,59:38.6,IMU,302764679,0,0.2103652,0.1306885,0.3254222,-4.32956,0.4175496,-9.162793,0,0,37.66323,1,1,999,999
464649,59:38.6,IMU,302804663,0,0.2147043,0.1358677,0.3432732,-4.29704,0.4446109,-9.192146,0,0,37.66421,1,1,999,999
464747,59:38.6,IMU,302844647,0,0.2203559,0.135159,0.3615957,-4.264751,0.4710327,-9.224216,0,0,37.66518,1,1,999,999
464798,59:38.7,IMU,302884631,0,0.2266239,0.1355124,0.3805482,-4.231073,0.4980766,-9.25932,0,0,37.66616,1,1,999,999
464850,59:38.7,IMU,302924615,0,0.2335116,0.1395354,0.4000953,-4.193218,0.5295208,-9.289328,0,0,37.66714,1,1,999,999
464950,59:38.8,IMU,302964599,0,0.2384891,0.1345396,0.4202357,-4.155352,0.5610788,-9.328639,0,0,37.66812,1,1,999,999
465005,59:38.8,IMU,303004583,0,0.2422803,0.135034,0.4411756,-4.114246,0.5948766,-9.360052,0,0,37.66909,1,1,999,999
465105,59:38.8,IMU,303045400,0,0.2481557,0.1368063,0.4631696,-4.069572,0.630609,-9.395014,0,0,37.6701,1,1,999,999
465157,59:38.9,IMU,303085384,0,0.2529395,0.1350592,0.4853556,-4.025361,0.6686618,-9.432364,0,0,37.67107,1,1,999,999
465209,59:38.9,IMU,303125368,0,0.2581738,0.1340883,0.5079025,-3.977062,0.7088259,-9.470226,0,0,37.67205,1,1,1000,1000
465309,59:39.0,IMU,303165352,0,0.2630687,0.1321694,0.5309591,-3.926212,0.7481166,-9.508573,0,0,37.67303,1,1,1000,1000
465364,59:39.0,IMU,303205336,0,0.2665363,0.1296766,0.5545231,-3.875202,0.7910988,-9.548321,0,0,37.674,1,1,1000,1000
465462,59:39.0,IMU,303245320,0,0.2728822,0.127777,0.5784545,-3.819478,0.837657,-9.58729,0,0,37.67498,1,1,1000,1000
465513,59:39.1,IMU,303285304,0,0.2779823,0.1264526,0.6026789,-3.763726,0.8841301,-9.629088,0,0,37.67596,1,1,1000,1000
465565,59:39.1,IMU,303325288,0,0.2824048,0.1227452,0.6271111,-3.703944,0.9310946,-9.666744,0,0,37.67694,1,1,1000,1000
465665,59:39.2,IMU,303365272,0,0.2846803,0.1169375,0.6517721,-3.642232,0.9826878,-9.710549,0,0,37.67791,1,1,1000,1000
465719,59:39.2,IMU,303405256,0,0.2845996,0.1078568,0.6759757,-3.577785,1.036321,-9.758009,0,0,37.67889,1,1,1000,1000
465819,59:39.2,IMU,303445240,0,0.2835315,0.09702565,0.6996314,-3.510346,1.08756,-9.789713,0,0,37.67986,1,1,1000,1000
465873,59:39.3,IMU,303485224,0,0.2806944,0.08483133,0.7223623,-3.441041,1.142589,-9.82609,0,0,37.68082,1,1,1000,1000
465925,59:39.3,IMU,303525208,0,0.2775495,0.06995118,0.7442795,-3.369698,1.20012,-9.866005,0,0,37.68179,1,1,1000,1000
466026,59:39.4,IMU,303565192,0,0.2650262,0.05569154,0.764839,-3.295459,1.256677,-9.897513,0,0,37.68277,1,1,1000,1000
466084,59:39.4,IMU,303605176,0,0.2537805,0.03892601,0.78329,-3.221228,1.315884,-9.930833,0,0,37.68374,1,1,1000,1000
466184,59:39.4,IMU,303645160,0,0.2464796,0.02559548,0.7991821,-3.145185,1.373956,-9.955492,0,0,37.68472,1,1,1000,1000
466236,59:39.5,IMU,303685144,0,0.237249,0.01347417,0.8121349,-3.068859,1.432749,-9.987026,0,0,37.68569,1,1,1000,1000
466288,59:39.5,IMU,303725128,0,0.2253651,-0.000738885,0.8214896,-2.992488,1.490825,-10.01104,0,0,37.68667,1,1,1000,1000
466387,59:39.6,IMU,303765112,0,0.21122,-0.01489457,0.8272126,-2.916643,1.548635,-10.03051,0,0,37.68764,1,1,1000,1000
466442,59:39.6,IMU,303805096,0,0.1916069,-0.03036712,0.8289809,-2.842144,1.603577,-10.04805,0,0,37.68862,1,1,1000,1000
466542,59:39.6,IMU,303845080,0,0.1735976,-0.04518498,0.8264174,-2.768745,1.657514,-10.05696,0,0,37.68959,1,1,1000,1000
466593,59:39.7,IMU,303885064,0,0.1567076,-0.0582503,0.819167,-2.69546,1.710389,-10.06394,0,0,37.69059,1,1,1000,1000
466645,59:39.7,IMU,303925048,0,0.1367111,-0.06671847,0.80781,-2.627029,1.760538,-10.07026,0,0,37.69157,1,1,1000,1000
466745,59:39.8,IMU,303965032,0,0.1191983,-0.07471777,0.791839,-2.560691,1.806613,-10.06973,0,0,37.69254,1,1,1000,1000
466800,59:39.8,IMU,304005016,0,0.1005881,-0.0803007,0.7717671,-2.499724,1.849081,-10.07065,0,0,37.69352,1,1,1000,1000
466901,59:39.8,IMU,304045000,0,0.08619907,-0.08000086,0.7479583,-2.441619,1.887388,-10.06376,0,0,37.69449,1,1,1000,1000
466953,59:39.9,IMU,304084984,0,0.07279793,-0.07570845,0.7210263,-2.388188,1.923434,-10.05722,0,0,37.69544,1,1,1000,1000
467005,59:39.9,IMU,304124968,0,0.05919399,-0.0679596,0.6911644,-2.340377,1.955432,-10.04875,0,0,37.69641,1,1,999,999
467105,59:40.0,IMU,304164952,0,0.04473928,-0.05955731,0.6591075,-2.298761,1.983804,-10.03689,0,0,37.69739,1,1,999,999
467160,59:40.0,IMU,304204936,0,0.03167443,-0.05130474,0.6253692,-2.260843,2.007242,-10.02082,0,0,37.69836,1,1,999,999
467258,59:40.0,IMU,304244920,0,0.02328882,-0.04491049,0.5904069,-2.227757,2.026219,-9.999028,0,0,37.69933,1,1,999,999
467309,59:40.1,IMU,304284904,0,0.0164443,-0.04057916,0.5548767,-2.200763,2.04253,-9.97928,0,0,37.70031,1,1,999,999
467361,59:40.1,IMU,304324888,0,0.01008861,-0.03844599,0.519252,-2.178649,2.05521,-9.955479,0,0,37.70128,1,1,999,999
467460,59:40.2,IMU,304364872,0,0.00361157,-0.03796719,0.4844542,-2.161609,2.064022,-9.928117,0,0,37.70226,1,1,999,999
467514,59:40.2,IMU,304404856,0,-0.002880394,-0.03729485,0.4506214,-2.148264,2.070328,-9.90029,0,0,37.70323,1,1,999,999
467614,59:40.2,IMU,304444840,0,-0.006832077,-0.03957322,0.418197,-2.138665,2.074581,-9.874043,0,0,37.7042,1,1,999,999
467668,59:40.3,IMU,304484824,0,-0.00815478,-0.04198148,0.3873695,-2.134931,2.074611,-9.846172,0,0,37.70517,1,1,999,999
467720,59:40.3,IMU,304524808,0,-0.01149929,-0.04397095,0.3583579,-2.135288,2.074653,-9.812017,0,0,37.70615,1,1,999,999
467821,59:40.4,IMU,304564792,0,-0.01757774,-0.04883181,0.3311547,-2.136261,2.070881,-9.788387,0,0,37.70712,1,1,999,999
467876,59:40.4,IMU,304604776,0,-0.02171707,-0.05496071,0.3061057,-2.14242,2.067002,-9.75018,0,0,37.70809,1,1,999,999
467974,59:40.4,IMU,304644760,0,-0.01970513,-0.06088024,0.2825794,-2.150285,2.060415,-9.719851,0,0,37.70906,1,1,999,999
468026,59:40.5,IMU,304684744,0,-0.02271564,-0.06296684,0.261282,-2.162301,2.052755,-9.691111,0,0,37.71003,1,1,999,999
468079,59:40.5,IMU,304724728,0,-0.0283246,-0.0664577,0.2415896,-2.176721,2.043685,-9.666409,0,0,37.71101,1,1,999,999
468178,59:40.6,IMU,304764712,0,-0.0325844,-0.0775619,0.2235768,-2.192549,2.035158,-9.637836,0,0,37.71198,1,1,999,999
468232,59:40.6,IMU,304804696,0,-0.03759274,-0.07930537,0.2073019,-2.210307,2.024825,-9.610609,0,0,37.71295,1,1,999,999
468330,59:40.6,IMU,304844680,0,-0.03761625,-0.07949177,0.1922158,-2.230804,2.014815,-9.586012,0,0,37.71392,1,1,999,999
468381,59:40.7,IMU,304884664,0,-0.03815851,-0.08093639,0.1783396,-2.253369,2.005024,-9.553374,0,0,37.71489,1,1,999,999
468433,59:40.7,IMU,304924648,0,-0.04327205,-0.08327663,0.1658069,-2.275635,1.991453,-9.521133,0,0,37.71586,1,1,999,999
468532,59:40.8,IMU,304964632,0,-0.04721381,-0.08722935,0.1540616,-2.300558,1.981546,-9.499393,0,0,37.71684,1,1,999,999
468587,59:40.8,IMU,305004616,0,-0.05135169,-0.0905849,0.1432909,-2.328356,1.970304,-9.474308,0,0,37.7178,1,1,999,999
468688,59:40.8,IMU,305044600,0,-0.0526636,-0.09460618,0.1330029,-2.354446,1.958017,-9.445779,0,0,37.71878,1,1,999,999
468739,59:40.9,IMU,305084584,0,-0.05321036,-0.09786092,0.1233667,-2.383584,1.947248,-9.423874,0,0,37.71975,1,1,999,999
468792,59:40.9,IMU,305125401,0,-0.05528567,-0.1009625,0.1143109,-2.414187,1.93637,-9.400468,0,0,37.72074,1,1,1000,1000
468891,59:41.0,IMU,305165385,0,-0.05839327,-0.09938109,0.1060911,-2.445729,1.925743,-9.375458,0,0,37.72171,1,1,1000,1000
468947,59:41.0,IMU,305205369,0,-0.06113637,-0.1009193,0.09821494,-2.477175,1.912735,-9.348602,0,0,37.72268,1,1,1000,1000
469045,59:41.0,IMU,305245353,0,-0.06270958,-0.1061481,0.09059224,-2.509625,1.901144,-9.317201,0,0,37.72365,1,1,1000,1000
469096,59:41.1,IMU,305285337,0,-0.06289029,-0.1131423,0.08306371,-2.543864,1.89085,-9.292474,0,0,37.72462,1,1,1000,1000
469148,59:41.1,IMU,305325321,0,-0.06492506,-0.1075063,0.07630623,-2.577035,1.879119,-9.269228,0,0,37.72559,1,1,1000,1000
469248,59:41.2,IMU,305365305,0,-0.07076719,-0.08252662,0.07054794,-2.615518,1.869094,-9.245184,0,0,37.72656,1,1,1000,1000
469302,59:41.2,IMU,305405289,0,-0.0737083,-0.0549621,0.06501712,-2.6536,1.856379,-9.222693,0,0,37.72753,1,1,1000,1000
469402,59:41.2,IMU,305445273,0,-0.07539503,-0.03442797,0.05974348,-2.694527,1.847007,-9.194967,0,0,37.7285,1,1,1000,1000
469456,59:41.3,IMU,305485257,0,-0.07504638,-0.0187496,0.05457629,-2.735686,1.835937,-9.166431,0,0,37.72947,1,1,1000,1000
469508,59:41.3,IMU,305525241,0,-0.07430695,-0.008232564,0.04969672,-2.777117,1.824553,-9.130295,0,0,37.73044,1,1,1000,1000
469610,59:41.4,IMU,305565225,0,-0.07769088,0.000772181,0.04526239,-2.819052,1.81445,-9.093254,0,0,37.73138,1,1,1000,1000
469665,59:41.4,IMU,305605209,0,-0.07806504,0.01180867,0.04113797,-2.861504,1.803242,-9.055461,0,0,37.73236,1,1,1000,1000
469763,59:41.4,IMU,305645193,0,-0.07817282,0.01700305,0.03700777,-2.904535,1.795124,-9.029296,0,0,37.73333,1,1,1000,1000
469815,59:41.5,IMU,305685177,0,-0.07406412,0.01757531,0.03266064,-2.94691,1.784587,-8.995698,0,0,37.73429,1,1,1000,1000
469868,59:41.5,IMU,305725161,0,-0.0661129,0.0194333,0.02841294,-2.989817,1.77687,-8.970539,0,0,37.73526,1,1,1000,1000
469967,59:41.6,IMU,305765145,0,-0.05856121,0.01760108,0.02402735,-3.03151,1.768569,-8.942389,0,0,37.73623,1,1,1000,1000
470021,59:41.6,IMU,305805129,0,-0.04448435,0.01606595,0.0197442,-3.073236,1.761186,-8.923927,0,0,37.7372,1,1,1000,1000
470119,59:41.6,IMU,305845113,0,-0.02779108,0.01464127,0.01558903,-3.112969,1.755775,-8.906507,0,0,37.73817,1,1,1000,1000
470170,59:41.7,IMU,305885097,0,-0.01601766,0.01353269,0.01179733,-3.15411,1.751796,-8.891741,0,0,37.73914,1,1,1000,1000
470222,59:41.7,IMU,305925081,0,-0.00864204,0.008851239,0.008281924,-3.194213,1.74692,-8.883209,0,0,37.7401,1,1,1000,1000
470321,59:41.8,IMU,305965065,0,-0.002724471,0.004294361,0.004934588,-3.230973,1.742638,-8.860674,0,0,37.7411,1,1,1000,1000
470376,59:41.8,IMU,306005049,0,0.002738128,0.0013312,0.002044995,-3.269823,1.73762,-8.849368,0,0,37.74207,1,1,1000,1000
470478,59:41.8,IMU,306045033,0,0.007973867,0.000709012,-0.00014279,-3.308714,1.734914,-8.842158,0,0,37.74303,1,1,1000,1000
470529,59:41.9,IMU,306085017,0,0.01390673,0.001143974,-0.001946622,-3.345553,1.730491,-8.834358,0,0,37.744,1,1,1000,1000
470582,59:41.9,IMU,306125001,0,0.01883092,-0.000530988,-0.00364121,-3.382528,1.727253,-8.822977,0,0,37.74496,1,1,999,999
470681,59:42.0,IMU,306164985,0,0.02178575,-0.002651897,-0.005060342,-3.416218,1.722596,-8.814852,0,0,37.74591,1,1,999,999
470736,59:42.0,IMU,306204969,0,0.02441713,-0.002000033,-0.006021433,-3.452266,1.720025,-8.80848,0,0,37.74688,1,1,999,999
470835,59:42.0,IMU,306244953,0,0.0250533,-0.003786191,-0.006479198,-3.485078,1.714494,-8.799319,0,0,37.74784,1,1,999,999
470886,59:42.1,IMU,306284937,0,0.02473967,-0.002819839,-0.006425134,-3.520444,1.712659,-8.800243,0,0,37.74881,1,1,999,999
470938,59:42.1,IMU,306324921,0,0.02527446,-0.002023071,-0.006433352,-3.553984,1.706959,-8.795965,0,0,37.74978,1,1,999,999
471038,59:42.2,IMU,306364905,0,0.02641502,-0.003065382,-0.006487339,-3.585591,1.704172,-8.784998,0,0,37.75074,1,1,999,999
471092,59:42.2,IMU,306404889,0,0.02393013,-0.003051155,-0.006008683,-3.615642,1.699148,-8.775691,0,0,37.75171,1,1,999,999
471192,59:42.2,IMU,306444873,0,0.02188611,-0.003879827,-0.005570638,-3.645574,1.694112,-8.772537,0,0,37.75268,1,1,999,999
471246,59:42.3,IMU,306484857,0,0.02439511,-0.004468683,-0.005311206,-3.674974,1.689795,-8.76553,0,0,37.75364,1,1,999,999
471298,59:42.3,IMU,306524841,0,0.02744504,-0.00481352,-0.00506829,-3.70679,1.685419,-8.763073,0,0,37.75461,1,1,999,999
471399,59:42.4,IMU,306564825,0,0.02759058,-0.005024467,-0.004869133,-3.733818,1.681479,-8.761666,0,0,37.75558,1,1,999,999
471454,59:42.4,IMU,306604809,0,0.02728439,-0.004091922,-0.004611177,-3.761991,1.677109,-8.758615,0,0,37.75654,1,1,999,999
471552,59:42.4,IMU,306644793,0,0.0268573,-0.003635267,-0.004106609,-3.790488,1.672393,-8.760669,0,0,37.75751,1,1,999,999
471604,59:42.5,IMU,306684777,0,0.02623119,-0.002759048,-0.003599683,-3.815984,1.667201,-8.754384,0,0,37.75847,1,1,999,999
471658,59:42.5,IMU,306724761,0,0.02520467,-0.001644249,-0.003036606,-3.842405,1.663909,-8.751892,0,0,37.75944,1,1,999,999
471757,59:42.6,IMU,306764745,0,0.021757,-0.0007462,-0.00230278,-3.868977,1.660361,-8.752008,0,0,37.7604,1,1,999,999
471811,59:42.6,IMU,306804729,0,0.02052917,-0.00047209,-0.001686221,-3.893327,1.654007,-8.75132,0,0,37.76137,1,1,999,999
471909,59:42.6,IMU,306844713,0,0.01877192,-0.00128778,-0.001228879,-3.916778,1.650474,-8.746414,0,0,37.76233,1,1,999,999
471960,59:42.7,IMU,306884697,0,0.01798007,-0.000673768,-0.000855909,-3.939624,1.645676,-8.742786,0,0,37.7633,1,1,999,999
472012,59:42.7,IMU,306924681,0,0.01648503,-5.81e-05,-0.000425834,-3.962282,1.639677,-8.737652,0,0,37.76426,1,1,999,999
472111,59:42.8,IMU,306964665,0,0.01512699,0.000415203,-6.2e-05,-3.98468,1.635043,-8.734297,0,0,37.76523,1,1,999,999
472166,59:42.8,IMU,307004649,0,0.01389403,0.000797646,0.000330415,-4.004524,1.6309,-8.729259,0,0,37.76619,1,1,999,999
472268,59:42.8,IMU,307044633,0,0.01290709,0.001188983,0.000601839,-4.025952,1.624812,-8.724717,0,0,37.76716,1,1,999,999
472319,59:42.9,IMU,307084617,0,0.01002093,0.001469414,0.001085027,-4.04692,1.61973,-8.725017,0,0,37.76812,1,1,999,999
472372,59:42.9,IMU,307124601,0,0.008207485,0.002041116,0.001617429,-4.068279,1.615991,-8.733727,0,0,37.76908,1,1,999,999
472471,59:43.0,IMU,307164585,0,0.008193892,0.002907153,0.002134198,-4.087827,1.609669,-8.731838,0,0,37.77005,1,1,999,999
472526,59:43.0,IMU,307205402,0,0.004801096,0.003684746,0.002844306,-4.106622,1.604759,-8.729596,0,0,37.77104,1,1,999,999
472625,59:43.0,IMU,307245386,0,0.004827299,0.004535331,0.003306944,-4.126166,1.599837,-8.72838,0,0,37.772,1,1,999,999
472676,59:43.1,IMU,307285370,0,0.004765864,0.007087463,0.003577886,-4.143202,1.596585,-8.725335,0,0,37.77296,1,1,999,999
472728,59:43.1,IMU,307325354,0,0.002498194,0.005324252,0.003792881,-4.161268,1.591219,-8.726595,0,0,37.77393,1,1,999,999
472828,59:43.2,IMU,307365338,0,-0.001723313,0.005238016,0.004138848,-4.177505,1.587071,-8.719877,0,0,37.77489,1,1,999,999
472882,59:43.2,IMU,307405322,0,-0.00374123,0.005203986,0.004634041,-4.19346,1.581734,-8.722601,0,0,37.77586,1,1,999,999
472982,59:43.2,IMU,307445306,0,-0.007518278,0.005028741,0.005400165,-4.209679,1.578207,-8.723996,0,0,37.77682,1,1,999,999
473039,59:43.3,IMU,307485290,0,-0.006065019,0.007677772,0.006005026,-4.224531,1.571921,-8.718018,0,0,37.77778,1,1,999,999
473091,59:43.3,IMU,307525274,0,-0.005062575,0.008747954,0.006351114,-4.240088,1.568994,-8.721522,0,0,37.77874,1,1,999,999
473192,59:43.4,IMU,307565258,0,-0.007521678,0.009921772,0.006781195,-4.253689,1.564321,-8.718859,0,0,37.77971,1,1,999,999
473246,59:43.4,IMU,307605242,0,-0.01104009,0.01221079,0.0072496,-4.269583,1.561077,-8.722844,0,0,37.78067,1,1,999,999
473345,59:43.4,IMU,307645226,0,-0.01223145,0.01128056,0.00743574,-4.281615,1.557046,-8.721365,0,0,37.78161,1,1,999,999
473397,59:43.5,IMU,307685210,0,-0.01286841,0.01041129,0.007631036,-4.295324,1.553131,-8.717685,0,0,37.78257,1,1,999,999
473449,59:43.5,IMU,307725194,0,-0.01546239,0.009744182,0.008006291,-4.308893,1.5504,-8.718067,0,0,37.78353,1,1,999,999
473549,59:43.6,IMU,307765178,0,-0.01325423,0.009103547,0.008266754,-4.319533,1.545926,-8.712523,0,0,37.7845,1,1,999,999
473603,59:43.6,IMU,307805162,0,-0.01244916,0.01135487,0.008728806,-4.331628,1.542783,-8.712337,0,0,37.78546,1,1,999,999
473701,59:43.6,IMU,307845146,0,-0.01501757,0.0135446,0.00924527,-4.342287,1.541673,-8.71476,0,0,37.78642,1,1,999,999
473754,59:43.7,IMU,307885130,0,-0.01810818,0.01342602,0.009490964,-4.353634,1.538101,-8.714165,0,0,37.78738,1,1,999,999
473806,59:43.7,IMU,307925114,0,-0.01793274,0.01311353,0.00936013,-4.364872,1.536754,-8.718529,0,0,37.78834,1,1,999,999
473905,59:43.8,IMU,307965098,0,-0.01849322,0.01204859,0.00945526,-4.373982,1.534108,-8.716338,0,0,37.7893,1,1,999,999
473960,59:43.8,IMU,308005082,0,-0.0178394,0.01118573,0.009674136,-4.384016,1.531968,-8.715347,0,0,37.79026,1,1,999,999
474062,59:43.8,IMU,308045066,0,-0.01527335,0.01274911,0.009983277,-4.392459,1.530088,-8.71446,0,0,37.79125,1,1,999,999
474113,59:43.9,IMU,308085050,0,-0.01654626,0.01347215,0.01012455,-4.40254,1.528461,-8.719297,0,0,37.79221,1,1,999,999
474165,59:43.9,IMU,308125034,0,-0.01888976,0.01190767,0.0101665,-4.410203,1.528492,-8.717333,0,0,37.79317,1,1,1000,1000
474265,59:44.0,IMU,308165018,0,-0.02057904,0.01221002,0.0100507,-4.418506,1.527919,-8.717332,0,0,37.79413,1,1,1000,1000
474320,59:44.0,IMU,308205002,0,-0.02045571,0.0112541,0.01006211,-4.42519,1.525244,-8.715925,0,0,37.79509,1,1,1000,1000
474418,59:44.0,IMU,308244986,0,-0.01808922,0.0113679,0.01012397,-4.432657,1.524989,-8.71418,0,0,37.79603,1,1,1000,1000
474470,59:44.1,IMU,308284970,0,-0.0180704,0.01337917,0.0102759,-4.439975,1.523871,-8.71819,0,0,37.79699,1,1,1000,1000
474522,59:44.1,IMU,308324954,0,-0.0154791,0.01225392,0.01010274,-4.44643,1.523961,-8.713491,0,0,37.79795,1,1,1000,1000
474622,59:44.2,IMU,308364938,0,-0.01608276,0.0114514,0.01013463,-4.452791,1.52504,-8.704767,0,0,37.79891,1,1,1000,1000
474676,59:44.2,IMU,308404922,0,-0.01458375,0.01092104,0.009945412,-4.458685,1.523708,-8.705343,0,0,37.79987,1,1,1000,1000
474776,59:44.2,IMU,308444906,0,-0.01514937,0.01046615,0.009796508,-4.462939,1.523775,-8.696524,0,0,37.80083,1,1,1000,1000
474830,59:44.3,IMU,308484890,0,-0.01376212,0.01047174,0.009625444,-4.469068,1.523742,-8.697741,0,0,37.80179,1,1,1000,1000
474882,59:44.3,IMU,308524874,0,-0.01354999,0.01042606,0.009479514,-4.475121,1.524607,-8.694268,0,0,37.80275,1,1,1000,1000
474983,59:44.4,IMU,308564858,0,-0.01418673,0.01102056,0.009302559,-4.480106,1.526026,-8.691036,0,0,37.80371,1,1,1000,1000
475037,59:44.4,IMU,308604842,0,-0.01206444,0.009671503,0.008844334,-4.483617,1.525726,-8.690077,0,0,37.80467,1,1,1000,1000
475136,59:44.4,IMU,308644826,0,-0.01066325,0.009037376,0.008473309,-4.48638,1.528022,-8.681627,0,0,37.80563,1,1,1000,1000
475188,59:44.5,IMU,308684810,0,-0.01090277,0.008462448,0.008163859,-4.491749,1.52805,-8.684404,0,0,37.80659,1,1,1000,1000
475240,59:44.5,IMU,308724794,0,-0.01294903,0.007998274,0.008155329,-4.494951,1.530072,-8.675167,0,0,37.80755,1,1,1000,1000
475341,59:44.6,IMU,308764778,0,-0.01243846,0.008167868,0.008001944,-4.498473,1.531108,-8.679667,0,0,37.80851,1,1,1000,1000
475396,59:44.6,IMU,308804762,0,-0.01119842,0.009304135,0.007938879,-4.502822,1.532085,-8.683194,0,0,37.80946,1,1,1000,1000
475494,59:44.6,IMU,308844746,0,-0.01136605,0.009390767,0.007806115,-4.508236,1.533217,-8.684824,0,0,37.81042,1,1,1000,1000
475545,59:44.7,IMU,308884730,0,-0.008726284,0.01019387,0.007582081,-4.512613,1.535732,-8.690757,0,0,37.81138,1,1,1000,1000
475597,59:44.7,IMU,308924714,0,-0.007239274,0.009254574,0.007286991,-4.514323,1.536805,-8.686659,0,0,37.81234,1,1,1000,1000
475696,59:44.8,IMU,308964698,0,-0.005961987,0.008660775,0.007006532,-4.516937,1.538737,-8.682847,0,0,37.8133,1,1,1000,1000
475752,59:44.8,IMU,309004682,0,-0.004788504,0.008185189,0.00673477,-4.519732,1.540178,-8.677174,0,0,37.81426,1,1,1000,1000
475854,59:44.8,IMU,309044666,0,-0.003757594,0.007706821,0.006515421,-4.52163,1.543021,-8.675124,0,0,37.81522,1,1,1000,1000
475905,59:44.9,IMU,309084650,0,-0.002909028,0.006457155,0.006075583,-4.526892,1.546944,-8.692443,0,0,37.81617,1,1,1000,1000
475957,59:44.9,IMU,309124634,0,-0.001073266,0.007905457,0.005629978,-4.529178,1.547581,-8.689322,0,0,37.81713,1,1,999,999
476057,59:45.0,IMU,309164618,0,0.00081977,0.007369036,0.005065976,-4.53128,1.549962,-8.686255,0,0,37.81809,1,1,999,999
476112,59:45.0,IMU,309204602,0,0.003294489,0.007005436,0.004844081,-4.533934,1.553034,-8.688318,0,0,37.81905,1,1,999,999
476210,59:45.0,IMU,309244586,0,0.004902125,0.00671726,0.004670539,-4.535194,1.555236,-8.685927,0,0,37.82,1,1,999,999
476287,59:45.1,IMU,309285403,0,0.009436365,0.005504738,0.004429197,-4.527768,1.554159,-8.597195,0,0,37.82098,1,1,999,999
476369,59:45.1,IMU,309325387,0,0.009986869,0.01338902,0.01104527,-4.505184,1.545144,-8.372561,0,0,37.82194,1,1,999,999
476496,59:45.2,IMU,309365371,0,0.009431263,0.02352752,0.03589933,-4.565285,1.578272,-8.936198,0,0,37.8229,1,1,999,999
476599,59:45.2,IMU,309405355,0,0.00950527,0.04391579,0.07880245,-4.536316,1.575999,-8.696133,0,0,37.82386,1,1,999,999
476699,59:45.2,IMU,309445339,0,0.01306936,0.1866992,0.1331909,-4.490442,1.573086,-8.301341,0,0,37.82481,1,1,999,999
476753,59:45.3,IMU,309485323,0,0.01436724,0.307352,0.1906562,-4.506371,1.607143,-8.414137,0,0,37.82577,1,1,999,999
476805,59:45.3,IMU,309525307,0,0.01836723,0.374336,0.2464425,-4.527535,1.65576,-8.603613,0,0,37.82673,1,1,999,999
476906,59:45.4,IMU,309565291,0,0.02489622,0.4024754,0.2972108,-4.539322,1.71282,-8.786848,0,0,37.82768,1,1,999,999
476960,59:45.4,IMU,309605275,0,0.03220862,0.4043093,0.3404363,-4.535963,1.78036,-8.947914,0,0,37.82864,1,1,999,999
477059,59:45.4,IMU,309645259,0,0.03794241,0.3920665,0.374891,-4.516687,1.856402,-9.094547,0,0,37.82959,1,1,999,999
477111,59:45.5,IMU,309685243,0,0.04366923,0.3734547,0.3996625,-4.482159,1.935947,-9.228626,0,0,37.83055,1,1,999,999
477163,59:45.5,IMU,309725227,0,0.0490511,0.3538451,0.4147276,-4.43504,2.019753,-9.348648,0,0,37.83148,1,1,999,999
477262,59:45.6,IMU,309765211,0,0.05433219,0.3344802,0.4212977,-4.377204,2.104438,-9.45541,0,0,37.83244,1,1,999,999
477317,59:45.6,IMU,309805195,0,0.05896477,0.3195756,0.4200276,-4.307438,2.192182,-9.549673,0,0,37.83339,1,1,999,999
477415,59:45.6,IMU,309845179,0,0.06116948,0.3073167,0.4121431,-4.23337,2.274328,-9.626371,0,0,37.83435,1,1,999,999
477467,59:45.7,IMU,309885163,0,0.06206472,0.2981631,0.3988186,-4.15528,2.35366,-9.69288,0,0,37.8353,1,1,999,999
477519,59:45.7,IMU,309925147,0,0.0636664,0.2901901,0.3814088,-4.074354,2.427871,-9.746826,0,0,37.83626,1,1,999,999
477619,59:45.8,IMU,309965131,0,0.0648348,0.2837797,0.3609912,-3.992454,2.496522,-9.787623,0,0,37.83722,1,1,999,999
477674,59:45.8,IMU,310005115,0,0.06536445,0.2779804,0.33864,-3.90868,2.557721,-9.824259,0,0,37.83817,1,1,999,999
477776,59:45.8,IMU,310045099,0,0.06465496,0.2731377,0.31539,-3.827852,2.614911,-9.850451,0,0,37.83912,1,1,999,999
477827,59:45.9,IMU,310085083,0,0.06333105,0.2690132,0.2918922,-3.74768,2.664468,-9.869364,0,0,37.84008,1,1,999,999
477879,59:45.9,IMU,310125067,0,0.06225382,0.2670534,0.2690519,-3.666887,2.706156,-9.87628,0,0,37.84103,1,1,1000,1000
477979,59:46.0,IMU,310165051,0,0.06036931,0.2659295,0.2470648,-3.590527,2.742558,-9.880847,0,0,37.84201,1,1,1000,1000
478034,59:46.0,IMU,310205035,0,0.05996654,0.2614313,0.2261652,-3.514986,2.773197,-9.878703,0,0,37.84297,1,1,1000,1000
478132,59:46.0,IMU,310245019,0,0.0592553,0.2587254,0.2067462,-3.441191,2.798079,-9.875132,0,0,37.84392,1,1,1000,1000
478183,59:46.1,IMU,310285003,0,0.05718882,0.2557789,0.1889072,-3.370111,2.816458,-9.868142,0,0,37.84488,1,1,1000,1000
478236,59:46.1,IMU,310324987,0,0.05595556,0.2534537,0.172552,-3.298988,2.83286,-9.854008,0,0,37.84581,1,1,1000,1000
478336,59:46.2,IMU,310364971,0,0.05558156,0.252048,0.1577989,-3.23155,2.844524,-9.843479,0,0,37.84676,1,1,1000,1000
478390,59:46.2,IMU,310404955,0,0.05348697,0.2491215,0.1445255,-3.162062,2.851796,-9.829443,0,0,37.84771,1,1,1000,1000
478492,59:46.2,IMU,310444939,0,0.05364962,0.2487173,0.1324962,-3.097226,2.854918,-9.816039,0,0,37.84867,1,1,1000,1000
478546,59:46.3,IMU,310484923,0,0.05062764,0.2487237,0.1218963,-3.03131,2.857021,-9.801964,0,0,37.84962,1,1,1000,1000
478598,59:46.3,IMU,310524907,0,0.05029313,0.2475906,0.1122084,-2.967209,2.85604,-9.787617,0,0,37.85057,1,1,1000,1000
478699,59:46.4,IMU,310564891,0,0.05031769,0.2477646,0.1032652,-2.902934,2.852506,-9.772003,0,0,37.85152,1,1,1000,1000
478753,59:46.4,IMU,310604875,0,0.05155665,0.2477793,0.09524119,-2.840607,2.848454,-9.758688,0,0,37.85248,1,1,1000,1000
478851,59:46.4,IMU,310644859,0,0.0513157,0.248575,0.08772714,-2.776795,2.840976,-9.741592,0,0,37.85343,1,1,1000,1000
478904,59:46.5,IMU,310684843,0,0.05004122,0.2497399,0.08089026,-2.715538,2.834166,-9.727677,0,0,37.85439,1,1,1000,1000
478956,59:46.5,IMU,310724827,0,0.04900239,0.2496758,0.07426341,-2.653622,2.8231,-9.719003,0,0,37.85534,1,1,1000,1000
479055,59:46.6,IMU,310764811,0,0.04940016,0.2465841,0.06772027,-2.5943,2.812843,-9.707893,0,0,37.85629,1,1,1000,1000
479109,59:46.6,IMU,310804795,0,0.04945405,0.2432272,0.06135126,-2.531516,2.800083,-9.694347,0,0,37.85724,1,1,1000,1000
479208,59:46.6,IMU,310844779,0,0.04857084,0.2431984,0.05531243,-2.470912,2.786889,-9.684894,0,0,37.8582,1,1,1000,1000
479259,59:46.7,IMU,310884763,0,0.0471,0.2435766,0.04795901,-2.412054,2.77269,-9.678504,0,0,37.85915,1,1,1000,1000
479311,59:46.7,IMU,310924747,0,0.04860057,0.2438431,0.02961563,-2.352954,2.755203,-9.664564,0,0,37.8601,1,1,1000,1000
479410,59:46.8,IMU,310964731,0,0.04612041,0.2428005,-0.009746792,-2.294491,2.732946,-9.662164,0,0,37.86105,1,1,1000,1000
479466,59:46.8,IMU,311004715,0,0.04591422,0.2421742,-0.07565527,-2.242334,2.701148,-9.656568,0,0,37.862,1,1,1000,1000
479567,59:46.8,IMU,311044699,0,0.04645861,0.2452542,-0.1692639,-2.198648,2.657137,-9.652137,0,0,37.86295,1,1,1000,1000
479618,59:46.9,IMU,311084683,0,0.04719768,0.2486607,-0.289956,-2.164302,2.593597,-9.651098,0,0,37.86391,1,1,1000,1000
479670,59:46.9,IMU,311124667,0,0.0461749,0.2559522,-0.432168,-2.149007,2.519178,-9.651718,0,0,37.86486,1,1,999,999
479770,59:47.0,IMU,311164651,0,0.04767916,0.2611529,-0.5807698,-2.156106,2.433011,-9.652454,0,0,37.86581,1,1,999,999
479825,59:47.0,IMU,311204635,0,0.04762054,0.2666864,-0.7186756,-2.186692,2.341271,-9.657665,0,0,37.86676,1,1,999,999
479923,59:47.0,IMU,311244619,0,0.04459718,0.2749679,-0.8265126,-2.23507,2.242696,-9.664043,0,0,37.86771,1,1,999,999
479974,59:47.1,IMU,311284603,0,0.03911757,0.2840661,-0.8928793,-2.290608,2.135164,-9.673378,0,0,37.86866,1,1,999,999
480026,59:47.1,IMU,311324587,0,0.03085454,0.2932566,-0.9150015,-2.342865,2.021865,-9.683189,0,0,37.86961,1,1,999,999
480127,59:47.2,IMU,311365404,0,0.02776516,0.3077887,-0.8969331,-2.385864,1.907563,-9.704066,0,0,37.87059,1,1,999,999
480181,59:47.2,IMU,311405388,0,0.02274754,0.3281466,-0.8464836,-2.414699,1.801217,-9.721869,0,0,37.87154,1,1,999,999
480281,59:47.2,IMU,311445372,0,0.0150947,0.3484412,-0.7713871,-2.427925,1.706378,-9.749853,0,0,37.87249,1,1,999,999
480335,59:47.3,IMU,311485356,0,0.005276607,0.3455251,-0.6792303,-2.425194,1.62526,-9.776827,0,0,37.87344,1,1,999,999
480388,59:47.3,IMU,311525340,0,-0.001903811,0.3240055,-0.5772347,-2.407947,1.557114,-9.806412,0,0,37.87439,1,1,999,999
480489,59:47.4,IMU,311565324,0,-0.002541867,0.2908108,-0.4716512,-2.377101,1.507074,-9.835198,0,0,37.87534,1,1,999,999
480543,59:47.4,IMU,311605308,0,-0.002113513,0.2527986,-0.3675442,-2.334322,1.46998,-9.861248,0,0,37.87629,1,1,999,999
480641,59:47.4,IMU,311645292,0,-0.000980335,0.2141998,-0.2690429,-2.282434,1.44588,-9.878168,0,0,37.87724,1,1,999,999
480693,59:47.5,IMU,311685276,0,-0.001239891,0.1765895,-0.1791537,-2.221425,1.434804,-9.900635,0,0,37.87819,1,1,999,999
480745,59:47.5,IMU,311725260,0,0.001302208,0.1411597,-0.09990312,-2.153642,1.434387,-9.90979,0,0,37.87914,1,1,999,999
480844,59:47.6,IMU,311765244,0,0.00496306,0.1090438,-0.03257305,-2.080194,1.439616,-9.914375,0,0,37.88008,1,1,999,999
480898,59:47.6,IMU,311805228,0,0.00998567,0.08259758,0.02132416,-2.007086,1.451963,-9.912531,0,0,37.88101,1,1,999,999
480997,59:47.6,IMU,311845212,0,0.01237017,0.05891988,0.06480835,-1.927157,1.468501,-9.910624,0,0,37.88196,1,1,999,999
481050,59:47.7,IMU,311885196,0,0.01339001,0.04173728,0.09695148,-1.848881,1.48767,-9.903496,0,0,37.88291,1,1,999,999
481102,59:47.7,IMU,311925180,0,0.01474906,0.02667005,0.1188747,-1.769159,1.509267,-9.893183,0,0,37.88386,1,1,999,999
481201,59:47.8,IMU,311965164,0,0.01748146,0.01352299,0.1315134,-1.692563,1.531509,-9.883409,0,0,37.88481,1,1,999,999
481257,59:47.8,IMU,312005148,0,0.01914358,0.000708486,0.1366937,-1.614441,1.552011,-9.875587,0,0,37.88576,1,1,999,999
481358,59:47.8,IMU,312045132,0,0.02026817,-0.01070638,0.135559,-1.54115,1.57399,-9.864139,0,0,37.8867,1,1,999,999
481409,59:47.9,IMU,312085116,0,0.0174535,-0.02250059,0.1294895,-1.471003,1.592081,-9.849148,0,0,37.88765,1,1,999,999
481461,59:47.9,IMU,312125100,0,0.01700004,-0.03477578,0.1196214,-1.402731,1.608349,-9.834351,0,0,37.8886,1,1,999,999
481560,59:48.0,IMU,312165084,0,0.01788532,-0.04837619,0.1070413,-1.338153,1.625698,-9.822375,0,0,37.88955,1,1,999,999
481617,59:48.0,IMU,312205068,0,0.01946114,-0.06286088,0.09284856,-1.276725,1.638526,-9.807961,0,0,37.8905,1,1,999,999
481715,59:48.0,IMU,312245052,0,0.01963949,-0.07600777,0.07789493,-1.219353,1.652489,-9.79133,0,0,37.89147,1,1,999,999
481766,59:48.1,IMU,312285036,0,0.0145787,-0.08557238,0.06300057,-1.165636,1.662495,-9.781821,0,0,37.89242,1,1,999,999
481818,59:48.1,IMU,312325020,0,0.01460167,-0.09734429,0.04856507,-1.11587,1.67155,-9.757997,0,0,37.89336,1,1,999,999
481918,59:48.2,IMU,312365004,0,0.01429886,-0.110058,0.03498726,-1.069219,1.678469,-9.744619,0,0,37.89431,1,1,999,999
481972,59:48.2,IMU,312404988,0,0.01764667,-0.1173295,0.02281942,-1.025846,1.686,-9.73133,0,0,37.89524,1,1,999,999
482072,59:48.2,IMU,312444972,0,0.01652738,-0.1276323,0.0122393,-0.9860399,1.690122,-9.715654,0,0,37.89618,1,1,999,999
482127,59:48.3,IMU,312484956,0,0.0155458,-0.1392917,0.002905891,-0.9479381,1.695862,-9.696605,0,0,37.89713,1,1,999,999
482179,59:48.3,IMU,312524940,0,0.01763138,-0.1456177,-0.00502442,-0.9127136,1.699181,-9.687474,0,0,37.89808,1,1,999,999
482280,59:48.4,IMU,312564924,0,0.01453139,-0.1532269,-0.0113856,-0.8803905,1.70339,-9.682188,0,0,37.89902,1,1,999,999
482334,59:48.4,IMU,312604908,0,0.01908067,-0.1583661,-0.0164383,-0.8505354,1.706471,-9.661891,0,0,37.89997,1,1,999,999
482432,59:48.4,IMU,312644892,0,0.02101961,-0.1623014,-0.02021064,-0.821744,1.708995,-9.655112,0,0,37.90092,1,1,999,999
482484,59:48.5,IMU,312684876,0,0.01967174,-0.1677848,-0.02280551,-0.7956789,1.710216,-9.633812,0,0,37.90186,1,1,999,999
482536,59:48.5,IMU,312724860,0,0.01755929,-0.1709808,-0.02450101,-0.7730449,1.71364,-9.636278,0,0,37.90281,1,1,999,999
482635,59:48.6,IMU,312764844,0,0.01645844,-0.1725386,-0.02510342,-0.7504372,1.71575,-9.624645,0,0,37.90376,1,1,999,999
482689,59:48.6,IMU,312804828,0,0.02057396,-0.1726574,-0.02508344,-0.7293252,1.715965,-9.611631,0,0,37.9047,1,1,999,999
482787,59:48.6,IMU,312844812,0,0.02309828,-0.1736679,-0.02476564,-0.7105339,1.718949,-9.614904,0,0,37.90565,1,1,999,999
482839,59:48.7,IMU,312884796,0,0.02163342,-0.1724419,-0.02386502,-0.693687,1.720885,-9.605576,0,0,37.90659,1,1,999,999
482891,59:48.7,IMU,312924780,0,0.0206826,-0.1696343,-0.02251131,-0.6771716,1.722242,-9.597441,0,0,37.90754,1,1,999,999
482990,59:48.8,IMU,312964764,0,0.02272538,-0.1705179,-0.02117986,-0.6624162,1.726475,-9.601148,0,0,37.90849,1,1,999,999
483046,59:48.8,IMU,313004748,0,0.02585679,-0.1676778,-0.0198205,-0.6487312,1.726737,-9.599576,0,0,37.90943,1,1,999,999
483147,59:48.8,IMU,313044732,0,0.0253905,-0.1617482,-0.01802229,-0.636399,1.727646,-9.603236,0,0,37.91038,1,1,999,999
483198,59:48.9,IMU,313084716,0,0.02010895,-0.1613312,-0.01628552,-0.6255026,1.729173,-9.599369,0,0,37.91132,1,1,999,999
483251,59:48.9,IMU,313124700,0,0.01902496,-0.1560133,-0.01462913,-0.6154749,1.732034,-9.603195,0,0,37.91227,1,1,1000,1000
483350,59:49.0,IMU,313164684,0,0.01848842,-0.151003,-0.01309913,-0.6070177,1.733843,-9.609938,0,0,37.91321,1,1,1000,1000
483406,59:49.0,IMU,313204668,0,0.02151226,-0.1410984,-0.01177743,-0.5968263,1.734035,-9.605618,0,0,37.91416,1,1,1000,1000
483504,59:49.0,IMU,313244652,0,0.02459971,-0.1352627,-0.01054722,-0.5914188,1.735533,-9.60247,0,0,37.9151,1,1,1000,1000
483555,59:49.1,IMU,313284636,0,0.02423166,-0.1323935,-0.009539001,-0.5851845,1.737838,-9.626074,0,0,37.91605,1,1,1000,1000
483607,59:49.1,IMU,313324620,0,0.02495863,-0.1260601,-0.00833407,-0.5794052,1.738463,-9.626781,0,0,37.91699,1,1,1000,1000
483706,59:49.2,IMU,313364604,0,0.02318728,-0.1163579,-0.007177354,-0.573763,1.74049,-9.628101,0,0,37.91793,1,1,1000,1000
483761,59:49.2,IMU,313404588,0,0.02172244,-0.1107434,-0.006363536,-0.571771,1.740029,-9.633644,0,0,37.91888,1,1,1000,1000
483861,59:49.2,IMU,313445405,0,0.02358055,-0.1065809,-0.005765756,-0.5671682,1.742187,-9.644878,0,0,37.91985,1,1,1000,1000
483915,59:49.3,IMU,313485389,0,0.0234688,-0.1042445,-0.005191685,-0.5654515,1.743127,-9.648591,0,0,37.92079,1,1,1000,1000
483967,59:49.3,IMU,313525373,0,0.022188,-0.1029813,-0.004810245,-0.5622926,1.743482,-9.653767,0,0,37.92173,1,1,1000,1000
484068,59:49.4,IMU,313565357,0,0.02272895,-0.1042194,-0.004401877,-0.5613146,1.742844,-9.663475,0,0,37.92268,1,1,1000,1000
484122,59:49.4,IMU,313605341,0,0.02117857,-0.108274,-0.004221016,-0.5605618,1.742866,-9.663532,0,0,37.92362,1,1,1000,1000
484220,59:49.4,IMU,313645325,0,0.01977011,-0.1125583,-0.004233613,-0.5612795,1.742399,-9.667102,0,0,37.92456,1,1,1000,1000
484272,59:49.5,IMU,313685309,0,0.01853527,-0.1180176,-0.004364379,-0.5609202,1.742362,-9.663799,0,0,37.92551,1,1,1000,1000
484324,59:49.5,IMU,313725293,0,0.01917903,-0.1228555,-0.004506091,-0.5613974,1.742385,-9.661285,0,0,37.92645,1,1,1000,1000
484425,59:49.6,IMU,313765277,0,0.01973652,-0.1223776,-0.004865322,-0.5627846,1.741711,-9.667692,0,0,37.92739,1,1,1000,1000
484479,59:49.6,IMU,313805261,0,0.02463365,-0.1174157,-0.005103581,-0.5646989,1.740943,-9.676167,0,0,37.92834,1,1,1000,1000
484577,59:49.6,IMU,313845245,0,0.03295587,-0.1133983,-0.005077046,-0.5697547,1.740604,-9.674299,0,0,37.92928,1,1,1000,1000
484628,59:49.7,IMU,313885229,0,0.03694504,-0.108002,-0.004475443,-0.5727924,1.740498,-9.681963,0,0,37.9302,1,1,1000,1000
484681,59:49.7,IMU,313925213,0,0.04577185,-0.09783186,-0.002939051,-0.577976,1.738407,-9.685148,0,0,37.93114,1,1,1000,1000
484780,59:49.8,IMU,313965197,0,0.05813747,-0.08501151,-0.000267136,-0.5828328,1.739359,-9.699535,0,0,37.93208,1,1,1000,1000
484835,59:49.8,IMU,314005181,0,0.06847238,-0.07202836,0.003770533,-0.5887043,1.739656,-9.712381,0,0,37.93303,1,1,1000,1000
484936,59:49.8,IMU,314045165,0,0.07608458,-0.05959146,0.009357814,-0.5933713,1.737489,-9.726127,0,0,37.93397,1,1,1000,1000
484987,59:49.9,IMU,314085149,0,0.08149896,-0.04969414,0.01643211,-0.5988755,1.735449,-9.739296,0,0,37.93491,1,1,1000,1000
485039,59:49.9,IMU,314125133,0,0.0866941,-0.03980013,0.02507248,-0.6029835,1.733504,-9.750867,0,0,37.93585,1,1,999,999
485138,59:50.0,IMU,314165117,0,0.09052895,-0.02803895,0.03508564,-0.610302,1.731924,-9.765925,0,0,37.93679,1,1,999,999
485194,59:50.0,IMU,314205101,0,0.09345444,-0.01730889,0.04624614,-0.6127596,1.728312,-9.781528,0,0,37.93774,1,1,999,999
485292,59:50.0,IMU,314245085,0,0.09533954,-0.008686144,0.05843294,-0.6179554,1.726958,-9.790919,0,0,37.93868,1,1,999,999
485343,59:50.1,IMU,314285069,0,0.09510594,-0.004003635,0.0711563,-0.6200415,1.723845,-9.810053,0,0,37.93962,1,1,999,999
485395,59:50.1,IMU,314325053,0,0.09579788,0.000809526,0.08455643,-0.6214213,1.722206,-9.823248,0,0,37.94058,1,1,999,999
485495,59:50.2,IMU,314365037,0,0.09548266,0.01077745,0.09845733,-0.6230146,1.720065,-9.838064,0,0,37.94153,1,1,999,999
485550,59:50.2,IMU,314405021,0,0.09515171,0.01796743,0.1124005,-0.6228441,1.718327,-9.860172,0,0,37.94247,1,1,999,999
485650,59:50.2,IMU,314445005,0,0.09524487,0.02179229,0.1261059,-0.6213943,1.715197,-9.869022,0,0,37.94341,1,1,999,999
485704,59:50.3,IMU,314484989,0,0.09503979,0.01943665,0.139858,-0.6186224,1.711669,-9.8857,0,0,37.94432,1,1,999,999
485756,59:50.3,IMU,314524973,0,0.09478707,0.02455968,0.1536424,-0.6167772,1.709521,-9.904081,0,0,37.94527,1,1,999,999
485857,59:50.4,IMU,314564957,0,0.09489042,0.03278012,0.1675403,-0.6115718,1.707786,-9.913779,0,0,37.94621,1,1,999,999
485911,59:50.4,IMU,314604941,0,0.09487756,0.03765592,0.181127,-0.6067529,1.703705,-9.934715,0,0,37.94715,1,1,999,999
486009,59:50.4,IMU,314644925,0,0.09508243,0.04012752,0.1946225,-0.5993782,1.703053,-9.951647,0,0,37.94809,1,1,999,999
486060,59:50.5,IMU,314684909,0,0.09543987,0.04285878,0.2078722,-0.5928729,1.699652,-9.962864,0,0,37.94903,1,1,999,999
486113,59:50.5,IMU,314724893,0,0.09550815,0.04443686,0.2210191,-0.5852081,1.697352,-9.982004,0,0,37.94997,1,1,999,999
486212,59:50.6,IMU,314764877,0,0.0956811,0.04533064,0.2340889,-0.5743845,1.693337,-9.994896,0,0,37.95091,1,1,999,999
486266,59:50.6,IMU,314804861,0,0.09556402,0.05060786,0.2472158,-0.5636995,1.690642,-10.01108,0,0,37.95185,1,1,999,999
486364,59:50.6,IMU,314844845,0,0.09563651,0.05003913,0.2602427,-0.5524747,1.687895,-10.02803,0,0,37.95279,1,1,999,999
486415,59:50.7,IMU,314884829,0,0.09615225,0.05092718,0.2732464,-0.5392664,1.683786,-10.04327,0,0,37.95373,1,1,999,999
486468,59:50.7,IMU,314924813,0,0.0959017,0.05269056,0.2864496,-0.5266439,1.680736,-10.05667,0,0,37.95467,1,1,999,999
486567,59:50.8,IMU,314964797,0,0.09652221,0.0542587,0.2997023,-0.5117538,1.675367,-10.07469,0,0,37.9556,1,1,999,999
486622,59:50.8,IMU,315004781,0,0.09707084,0.05696692,0.3133131,-0.4972829,1.672203,-10.08656,0,0,37.95654,1,1,999,999
486723,59:50.8,IMU,315044765,0,0.09877975,0.05504815,0.3268361,-0.4800563,1.668344,-10.10686,0,0,37.95748,1,1,999,999
486774,59:50.9,IMU,315084749,0,0.09956555,0.05277753,0.3405508,-0.4647141,1.663985,-10.12331,0,0,37.95842,1,1,999,999
486826,59:50.9,IMU,315124733,0,0.1003923,0.05082617,0.3545026,-0.4448312,1.657515,-10.13619,0,0,37.95936,1,1,1000,1000
486925,59:51.0,IMU,315164717,0,0.10254,0.05045099,0.3686883,-0.4267116,1.653406,-10.15506,0,0,37.9603,1,1,1000,1000
486981,59:51.0,IMU,315204701,0,0.1042312,0.05260795,0.3830934,-0.4070684,1.646095,-10.16659,0,0,37.96124,1,1,1000,1000
487079,59:51.0,IMU,315244685,0,0.1051491,0.05070943,0.3977254,-0.387717,1.640421,-10.19002,0,0,37.96218,1,1,1000,1000
487130,59:51.1,IMU,315284669,0,0.1058922,0.04502066,0.4124571,-0.3669441,1.632064,-10.19816,0,0,37.96312,1,1,1000,1000
487182,59:51.1,IMU,315324653,0,0.1080323,0.04567543,0.4274447,-0.345278,1.625344,-10.2177,0,0,37.96405,1,1,1000,1000
487281,59:51.2,IMU,315364637,0,0.1084059,0.04483113,0.4425091,-0.3242376,1.616168,-10.23433,0,0,37.96499,1,1,1000,1000
487335,59:51.2,IMU,315404621,0,0.108986,0.04315708,0.4575775,-0.3024872,1.606272,-10.25233,0,0,37.96593,1,1,1000,1000
487437,59:51.2,IMU,315444605,0,0.1093796,0.0317827,0.4723918,-0.2783403,1.596791,-10.26528,0,0,37.96687,1,1,1000,1000
487491,59:51.3,IMU,315484589,0,0.1084175,0.0170398,0.4868875,-0.2548661,1.586213,-10.28111,0,0,37.9678,1,1,1000,1000
487543,59:51.3,IMU,315525406,0,0.1038462,0.001552566,0.5013305,-0.231434,1.573362,-10.29695,0,0,37.96877,1,1,1000,1000
487644,59:51.4,IMU,315565390,0,0.09842137,-0.00885677,0.5148019,-0.2069276,1.560585,-10.30501,0,0,37.9697,1,1,1000,1000
487698,59:51.4,IMU,315605374,0,0.09468193,-0.02245056,0.5270452,-0.1847862,1.547628,-10.32309,0,0,37.97064,1,1,1000,1000
487799,59:51.4,IMU,315645358,0,0.08866633,-0.03830224,0.537886,-0.1609471,1.531588,-10.32567,0,0,37.97158,1,1,1000,1000
487851,59:51.5,IMU,315685342,0,0.08716084,-0.05272231,0.5472561,-0.1379085,1.515262,-10.3329,0,0,37.97252,1,1,1000,1000
487904,59:51.5,IMU,315725326,0,0.08466548,-0.0653709,0.555106,-0.1164082,1.50039,-10.34854,0,0,37.97345,1,1,1000,1000
488003,59:51.6,IMU,315765310,0,0.07980644,-0.07719042,0.5609419,-0.09558679,1.482354,-10.35849,0,0,37.97439,1,1,1000,1000
488057,59:51.6,IMU,315805294,0,0.07038446,-0.08886172,0.5649174,-0.0747707,1.464233,-10.36362,0,0,37.97533,1,1,1000,1000
488156,59:51.6,IMU,315845278,0,0.06448131,-0.1039853,0.5663521,-0.05416703,1.446059,-10.36926,0,0,37.97626,1,1,1000,1000
488207,59:51.7,IMU,315885262,0,0.05614839,-0.1199203,0.5653825,-0.0370144,1.427228,-10.37059,0,0,37.9772,1,1,1000,1000
488261,59:51.7,IMU,315925246,0,0.04681343,-0.1347487,0.5617422,-0.01949875,1.404935,-10.37555,0,0,37.97813,1,1,1000,1000
488361,59:51.8,IMU,315965230,0,0.03759745,-0.1481617,0.5554367,-0.00443891,1.387102,-10.37747,0,0,37.97905,1,1,1000,1000
488416,59:51.8,IMU,316005214,0,0.02913721,-0.1614678,0.5461347,0.01089765,1.364409,-10.38031,0,0,37.97998,1,1,1000,1000
488517,59:51.8,IMU,316045198,0,0.02170652,-0.1702806,0.5341063,0.02564598,1.344314,-10.37889,0,0,37.98092,1,1,1000,1000
488568,59:51.9,IMU,316085182,0,0.01522237,-0.1774891,0.5194529,0.03837871,1.323829,-10.38227,0,0,37.98186,1,1,1000,1000
488620,59:51.9,IMU,316125166,0,0.01012274,-0.1813546,0.5024538,0.04919187,1.304119,-10.38544,0,0,37.98279,1,1,999,999
488719,59:52.0,IMU,316165150,0,0.005381051,-0.1835386,0.4833136,0.0593098,1.284399,-10.3867,0,0,37.98373,1,1,999,999
488775,59:52.0,IMU,316205134,0,0.001048233,-0.1829101,0.4624665,0.06513368,1.264484,-10.39042,0,0,37.98466,1,1,999,999
488873,59:52.0,IMU,316245118,0,-0.002215791,-0.1834246,0.4400515,0.07293324,1.246054,-10.39225,0,0,37.9856,1,1,999,999
488924,59:52.1,IMU,316285102,0,-0.004094969,-0.1814018,0.4166414,0.07707863,1.228703,-10.39524,0,0,37.98653,1,1,999,999
488976,59:52.1,IMU,316325086,0,-0.006073554,-0.1757827,0.3925095,0.07968836,1.211048,-10.39548,0,0,37.98747,1,1,999,999
489075,59:52.2,IMU,316365070,0,-0.01093129,-0.1655703,0.3680846,0.08032197,1.195484,-10.40193,0,0,37.9884,1,1,999,999
489129,59:52.2,IMU,316405054,0,-0.01304715,-0.1511091,0.3433587,0.0795857,1.179126,-10.40141,0,0,37.98936,1,1,999,999
489229,59:52.2,IMU,316445038,0,-0.01577433,-0.1358076,0.3188831,0.07785811,1.1661,-10.40199,0,0,37.9903,1,1,999,999
489284,59:52.3,IMU,316485022,0,-0.01767959,-0.1205613,0.2947844,0.07489401,1.153234,-10.39556,0,0,37.99123,1,1,999,999
489336,59:52.3,IMU,316525006,0,-0.021422,-0.1080938,0.2711998,0.06996432,1.140478,-10.38834,0,0,37.99216,1,1,999,999
489437,59:52.4,IMU,316564990,0,-0.01945629,-0.09762724,0.2486351,0.06359071,1.128314,-10.38988,0,0,37.99308,1,1,999,999
489491,59:52.4,IMU,316604974,0,-0.01959365,-0.08854358,0.2267427,0.05588592,1.117111,-10.37858,0,0,37.99401,1,1,999,999
489589,59:52.4,IMU,316644958,0,-0.0216643,-0.07778372,0.2062753,0.04838249,1.106628,-10.36944,0,0,37.99494,1,1,999,999
489641,59:52.5,IMU,316684942,0,-0.01956565,-0.06586175,0.1869705,0.03736053,1.09905,-10.36832,0,0,37.99588,1,1,999,999
489694,59:52.5,IMU,316724926,0,-0.02230602,-0.05310998,0.1690131,0.02753033,1.089875,-10.35336,0,0,37.99681,1,1,999,999
489793,59:52.6,IMU,316764910,0,-0.02259673,-0.03595724,0.1523688,0.01677911,1.081495,-10.33884,0,0,37.99775,1,1,999,999
489847,59:52.6,IMU,316804894,0,-0.02670879,-0.01990588,0.1368319,0.006501944,1.07403,-10.32079,0,0,37.99868,1,1,999,999
489945,59:52.6,IMU,316844878,0,-0.02370663,-0.009040109,0.1222015,-0.005351435,1.067416,-10.30534,0,0,37.99961,1,1,999,999
489996,59:52.7,IMU,316884862,0,-0.02302195,-0.00027912,0.1090218,-0.01762578,1.062021,-10.29646,0,0,38.00055,1,1,999,999
490048,59:52.7,IMU,316924846,0,-0.02755934,0.005373378,0.09691006,-0.02832332,1.055689,-10.27481,0,0,38.00148,1,1,999,999
490148,59:52.8,IMU,316964830,0,-0.02994309,0.0119656,0.08583762,-0.04196084,1.049308,-10.25843,0,0,38.00241,1,1,999,999
490203,59:52.8,IMU,317004814,0,-0.03291339,0.01696491,0.07572369,-0.05463992,1.044661,-10.231,0,0,38.00335,1,1,999,999
490304,59:52.8,IMU,317044798,0,-0.02986561,0.02004703,0.06621501,-0.06926259,1.040099,-10.21197,0,0,38.00428,1,1,999,999
490355,59:52.9,IMU,317084782,0,-0.03284983,0.0184292,0.05766102,-0.08146687,1.036783,-10.20233,0,0,38.00521,1,1,999,999
490407,59:52.9,IMU,317124766,0,-0.03557479,0.01703755,0.04935363,-0.09542182,1.031327,-10.17829,0,0,38.00614,1,1,999,999
490506,59:53.0,IMU,317164750,0,-0.03542431,0.0165515,0.04178576,-0.1096145,1.028481,-10.15113,0,0,38.00708,1,1,999,999
490561,59:53.0,IMU,317204734,0,-0.03871363,0.01388471,0.03500441,-0.1235819,1.024695,-10.13742,0,0,38.00801,1,1,999,999
490660,59:53.0,IMU,317244718,0,-0.03889576,0.01046839,0.02838526,-0.1376561,1.022633,-10.12843,0,0,38.00894,1,1,999,999
490711,59:53.1,IMU,317284702,0,-0.03813921,0.008691622,0.02208891,-0.1522921,1.019781,-10.10582,0,0,38.00987,1,1,999,999
490764,59:53.1,IMU,317324686,0,-0.0353282,0.01063497,0.0161188,-0.1671031,1.018081,-10.08809,0,0,38.0108,1,1,999,999
490863,59:53.2,IMU,317364670,0,-0.03296596,0.0154319,0.01059083,-0.1812247,1.017057,-10.07044,0,0,38.01173,1,1,999,999
490917,59:53.2,IMU,317404654,0,-0.0275124,0.01914135,0.005851022,-0.1973481,1.015461,-10.06406,0,0,38.01267,1,1,999,999
491017,59:53.2,IMU,317444638,0,-0.01831409,0.02437654,0.00146192,-0.2113309,1.014056,-10.04954,0,0,38.0136,1,1,999,999
491072,59:53.3,IMU,317484622,0,-0.007232467,0.03336657,-0.001843112,-0.2271665,1.012874,-10.0313,0,0,38.01453,1,1,999,999
491124,59:53.3,IMU,317524606,0,0.005965956,0.04037254,-0.00453911,-0.2418506,1.013238,-10.02624,0,0,38.01546,1,1,999,999
491225,59:53.4,IMU,317564590,0,0.0136061,0.04623753,-0.006565531,-0.257374,1.012095,-10.01808,0,0,38.01639,1,1,999,999
491279,59:53.4,IMU,317605407,0,0.01605037,0.05028765,-0.007669623,-0.2736632,1.012698,-10.00123,0,0,38.01735,1,1,999,999
491377,59:53.4,IMU,317645391,0,0.02113135,0.05523738,-0.00807501,-0.2888548,1.011197,-9.992428,0,0,38.01828,1,1,999,999
491428,59:53.5,IMU,317685375,0,0.02495575,0.05788734,-0.008086963,-0.3041236,1.012707,-9.986232,0,0,38.01921,1,1,999,999
491481,59:53.5,IMU,317725359,0,0.02677976,0.05730402,-0.00760791,-0.3181685,1.012532,-9.97647,0,0,38.02014,1,1,999,999
491580,59:53.6,IMU,317765343,0,0.02713234,0.05940176,-0.006583087,-0.3318176,1.011378,-9.964952,0,0,38.02107,1,1,999,999
491634,59:53.6,IMU,317805327,0,0.02554315,0.05840113,-0.005489142,-0.3460657,1.011019,-9.960372,0,0,38.022,1,1,999,999
491732,59:53.6,IMU,317845311,0,0.02459919,0.05429622,-0.004292473,-0.3588794,1.009263,-9.949406,0,0,38.02293,1,1,999,999
491783,59:53.7,IMU,317885295,0,0.02314671,0.0505282,-0.002878209,-0.3726702,1.008339,-9.940725,0,0,38.02386,1,1,999,999
491835,59:53.7,IMU,317925279,0,0.02178361,0.04761474,-0.00152213,-0.3844969,1.006743,-9.929619,0,0,38.02479,1,1,999,999
491934,59:53.8,IMU,317965263,0,0.01914493,0.04534245,-0.000100262,-0.3967351,1.00627,-9.924261,0,0,38.02572,1,1,999,999
491992,59:53.8,IMU,318005247,0,0.01625764,0.04724998,0.001122972,-0.4080601,1.005607,-9.918097,0,0,38.02665,1,1,999,999
492093,59:53.8,IMU,318045231,0,0.01530998,0.04796943,0.002232642,-0.4196269,1.004514,-9.915465,0,0,38.02756,1,1,999,999
492144,59:53.9,IMU,318085215,0,0.01420684,0.04380563,0.003071252,-0.4300926,1.002778,-9.912854,0,0,38.02849,1,1,999,999
492196,59:53.9,IMU,318125199,0,0.01136471,0.04428023,0.004126984,-0.441961,1.001784,-9.899101,0,0,38.02942,1,1,1000,1000
492295,59:54.0,IMU,318165183,0,0.008253163,0.04649228,0.005002015,-0.4519824,0.9994565,-9.889015,0,0,38.03035,1,1,1000,1000
492350,59:54.0,IMU,318205167,0,0.007532036,0.05014967,0.005759286,-0.4618447,0.998041,-9.884401,0,0,38.03128,1,1,1000,1000
492449,59:54.0,IMU,318245151,0,0.006096045,0.05242601,0.006198509,-0.4716721,0.9975813,-9.88016,0,0,38.0322,1,1,1000,1000
492500,59:54.1,IMU,318285135,0,0.005926874,0.05130573,0.006556814,-0.482304,0.9958956,-9.878075,0,0,38.03313,1,1,1000,1000
492552,59:54.1,IMU,318325119,0,0.005761301,0.05009002,0.00716588,-0.48999,0.9942139,-9.875475,0,0,38.03406,1,1,1000,1000
492651,59:54.2,IMU,318365103,0,0.003514764,0.04952433,0.007384568,-0.5007062,0.9920384,-9.86466,0,0,38.03499,1,1,1000,1000
492705,59:54.2,IMU,318405087,0,0.001122029,0.05223566,0.007445943,-0.5065292,0.9906049,-9.847977,0,0,38.03592,1,1,1000,1000
492805,59:54.2,IMU,318445071,0,0.002163427,0.0535962,0.007404538,-0.5159368,0.9891748,-9.845743,0,0,38.03685,1,1,1000,1000
492859,59:54.3,IMU,318485055,0,0.00227577,0.05725497,0.007506276,-0.5226293,0.9887421,-9.84446,0,0,38.0378,1,1,1000,1000
492912,59:54.3,IMU,318525039,0,0.002475809,0.06370055,0.007696508,-0.5298415,0.9877212,-9.846461,0,0,38.03873,1,1,1000,1000
493013,59:54.4,IMU,318565023,0,0.00034282,0.06493687,0.007854419,-0.5368547,0.9846482,-9.82622,0,0,38.03966,1,1,1000,1000
493067,59:54.4,IMU,318605007,0,-0.001673981,0.06478627,0.007795981,-0.5445099,0.9841659,-9.822257,0,0,38.04058,1,1,1000,1000
493165,59:54.4,IMU,318644991,0,0.000645262,0.06278624,0.007485057,-0.550489,0.9823076,-9.816119,0,0,38.04149,1,1,1000,1000
493217,59:54.5,IMU,318684975,0,0.000939403,0.06329936,0.007451662,-0.556542,0.9822021,-9.813993,0,0,38.04242,1,1,1000,1000
493269,59:54.5,IMU,318724959,0,-0.00164104,0.06675646,0.007457114,-0.5611448,0.9796244,-9.807706,0,0,38.04334,1,1,1000,1000
493369,59:54.6,IMU,318764943,0,-0.004870302,0.06989055,0.007537391,-0.5672027,0.9786303,-9.795005,0,0,38.04427,1,1,1000,1000
493423,59:54.6,IMU,318804927,0,-0.003020841,0.06983895,0.007283698,-0.5710567,0.976698,-9.790296,0,0,38.0452,1,1,1000,1000
493523,59:54.6,IMU,318844911,0,-0.002431324,0.06954271,0.006941866,-0.576448,0.977172,-9.789039,0,0,38.04613,1,1,1000,1000
493574,59:54.7,IMU,318884895,0,-0.001825345,0.07097965,0.006846703,-0.5796311,0.9761244,-9.778958,0,0,38.04705,1,1,1000,1000
493626,59:54.7,IMU,318924879,0,-0.00379127,0.07369133,0.007036152,-0.583729,0.9758126,-9.777854,0,0,38.04798,1,1,1000,1000
493725,59:54.8,IMU,318964863,0,-0.006845383,0.07191408,0.007216688,-0.5857739,0.9737931,-9.761169,0,0,38.04891,1,1,1000,1000
493780,59:54.8,IMU,319004847,0,-0.007082823,0.06555734,0.00724525,-0.588207,0.9734915,-9.761341,0,0,38.04984,1,1,1000,1000
493882,59:54.8,IMU,319044831,0,-0.004247945,0.05998445,0.007009439,-0.589835,0.9723107,-9.757406,0,0,38.05076,1,1,1000,1000
493933,59:54.9,IMU,319084815,0,-0.003591392,0.04811238,0.00669901,-0.5903777,0.9724666,-9.758388,0,0,38.05169,1,1,1000,1000
493985,59:54.9,IMU,319124799,0,-0.002932011,0.03314384,0.006463069,-0.5909812,0.9719802,-9.75854,0,0,38.05261,1,1,999,999
494084,59:55.0,IMU,319164783,0,-0.006077275,0.01881324,0.00630292,-0.5917485,0.9718264,-9.752588,0,0,38.05354,1,1,999,999
494139,59:55.0,IMU,319204767,0,-0.007341965,0.008203724,0.006048492,-0.592801,0.9703836,-9.746946,0,0,38.05447,1,1,999,999
494238,59:55.0,IMU,319244751,0,-0.007706299,0.002400523,0.005587672,-0.5924944,0.9710732,-9.744007,0,0,38.05539,1,1,999,999
